Data from https://doi.org/10.1038/s41467-019-09730-9
Upon cooling
Temperature(K)	Heat capacity(J/kg/K)

362.97	8415.63
362.97	10909.22
362.96	9456.17
362.96	8684.61
362.95	7188.57
362.94	6250.76
362.94	4868.88
362.93	3992.73
362.92	1612.59
362.92	30.52
362.91	88.36
362.9	104.92
362.89	157.71
362.89	185.47
362.88	202.56
362.87	198.97
362.86	200.59
362.85	214.28
362.85	239.93
362.84	285.51
362.83	368.88
362.82	461.53
362.81	556.38
362.81	597.06
362.8	623.14
362.79	644.22
362.78	674.53
362.77	703.39
362.76	724.65
362.75	741.92
362.74	760.57
362.73	781.29
362.72	802.45
362.71	821.06
362.7	844.06
362.69	858.63
362.68	880.74
362.67	905.86
362.66	928.52
362.65	940.99
362.64	956.08
362.63	974.02
362.62	996.55
362.61	1016.51
362.6	1027.25
362.59	1039.8
362.58	1050.8
362.56	1066.55
362.55	1080.33
362.54	1094.82
362.53	1103.03
362.52	1113.41
362.51	1127.61
362.5	1140.15
362.49	1160.9
362.47	1174.92
362.46	1185.93
362.45	1201.99
362.44	1213.53
362.43	1225.67
362.42	1236.56
362.4	1243.59
362.39	1258.9
362.38	1269.28
362.37	1277.5
362.36	1287.99
362.35	1294.47
362.33	1306.71
362.32	1323.52
362.31	1331.24
362.3	1344.67
362.28	1356.27
362.27	1368.84
362.26	1378.44
362.24	1391.1
362.23	1396.73
362.22	1405.05
362.21	1412.44
362.19	1423.58
362.18	1431.27
362.17	1439.19
362.16	1450.8
362.14	1460.63
362.13	1469.56
362.12	1481.76
362.1	1492.08
362.09	1501.24
362.08	1506.4
362.06	1513.88
362.05	1521.64
362.04	1529.26
362.03	1536.63
362.01	1539.89
362	1546.98
361.99	1557.16
361.97	1568.78
361.96	1580.99
361.95	1591.56
361.93	1601.89
361.92	1610.13
361.9	1614.89
361.89	1621.18
361.88	1629.98
361.87	1630.68
361.85	1637.35
361.84	1645.42
361.82	1651.02
361.81	1660.93
361.8	1669.62
361.78	1678.6
361.77	1687.2
361.75	1695.34
361.74	1702.74
361.73	1714.97
361.71	1722.67
361.7	1728.52
361.69	1733
361.67	1741.26
361.66	1747.34
361.64	1752.64
361.63	1757.28
361.62	1759.84
361.6	1767.15
361.59	1775.05
361.57	1783.2
361.56	1791.91
361.54	1799.56
361.53	1805.58
361.52	1809.33
361.5	1815.2
361.49	1820.74
361.47	1826.24
361.46	1830.9
361.44	1837.22
361.43	1844.35
361.42	1852.02
361.4	1860.31
361.39	1866.46
361.37	1871.1
361.36	1873.71
361.34	1879.02
361.33	1884.25
361.32	1890.41
361.3	1894.33
361.29	1901.71
361.27	1907.49
361.26	1914.08
361.24	1919.56
361.23	1927.47
361.21	1935.93
361.2	1941.13
361.18	1946.63
361.17	1954.12
361.15	1959.45
361.14	1961.8
361.13	1967.72
361.11	1972.84
361.1	1979.44
361.08	1981.62
361.07	1987.3
361.05	1991.07
361.04	1993.35
361.02	1997.82
361.01	2002.43
360.99	2006.5
360.98	2009.27
360.96	2011.12
360.95	2019.29
360.93	2025.83
360.92	2032.62
360.9	2040.14
360.89	2044.57
360.87	2049.24
360.86	2051.67
360.84	2054.9
360.83	2061.49
360.81	2064.86
360.8	2068.53
360.78	2073.63
360.77	2079.74
360.75	2086.16
360.74	2091.89
360.72	2095.45
360.71	2099.62
360.69	2101.05
360.68	2102.58
360.66	2106.06
360.65	2108.3
360.63	2109.89
360.62	2114.15
360.6	2118.44
360.59	2122.72
360.57	2128.14
360.56	2131.73
360.54	2136.21
360.52	2140.81
360.51	2144.38
360.49	2149.31
360.48	2153.28
360.46	2156.34
360.45	2160.72
360.43	2164.33
360.42	2167.27
360.4	2172.54
360.39	2176.76
360.37	2180.99
360.36	2186.39
360.34	2188.75
360.33	2190.32
360.31	2195.9
360.29	2199.88
360.28	2203.93
360.27	2206.33
360.25	2206.67
360.23	2208.52
360.22	2210.07
360.2	2211.31
360.19	2215.63
360.17	2217.78
360.16	2220.81
360.14	2225.44
360.13	2228.65
360.11	2230.54
360.09	2234.26
360.08	2237
360.06	2240.05
360.05	2244.93
360.03	2246.98
360.02	2247.94
360	2251.2
359.99	2256.33
359.97	2259.27
359.95	2261.52
359.94	2267.85
359.92	2271.64
359.91	2273.88
359.89	2276.63
359.88	2282.38
359.86	2285.37
359.85	2287.8
359.83	2289.76
359.81	2293.54
359.8	2294.33
359.78	2293.6
359.77	2297.21
359.75	2300.52
359.74	2300.22
359.72	2303.66
359.7	2306.06
359.69	2306.05
359.67	2308.52
359.66	2312.12
359.64	2315.77
359.63	2318.25
359.61	2319.82
359.6	2323.61
359.58	2327.65
359.56	2330.55
359.55	2332.43
359.53	2336.54
359.52	2339.14
359.5	2343.09
359.49	2347.73
359.47	2348.38
359.45	2350.61
359.44	2352.09
359.42	2353.54
359.4	2356.9
359.39	2358.87
359.37	2358.47
359.36	2359.89
359.34	2359.2
359.33	2361.2
359.31	2363.57
359.29	2365.03
359.28	2365.2
359.26	2366.31
359.25	2366.89
359.23	2372.31
359.22	2377.56
359.2	2382.69
359.18	2386.65
359.17	2386.92
359.15	2388.65
359.14	2390.36
359.12	2395.51
359.1	2395.99
359.09	2396.27
359.07	2395.72
359.06	2396.9
359.04	2399.54
359.02	2401.21
359.01	2402.6
358.99	2404.38
358.98	2405.46
358.96	2405.67
358.94	2408.88
358.93	2411.24
358.91	2413.98
358.9	2413.1
358.88	2413.3
358.86	2416.41
358.85	2417.42
358.83	2420.17
358.82	2423.41
358.8	2425.41
358.79	2426.39
358.77	2426.79
358.75	2427.92
358.74	2430.39
358.72	2431.49
358.7	2433.33
358.69	2436.81
358.67	2440.24
358.66	2444
358.64	2446.02
358.62	2446.34
358.61	2445.71
358.59	2445.83
358.58	2444.35
358.56	2446.07
358.54	2447.86
358.53	2449.14
358.51	2450.09
358.5	2453.11
358.48	2457.55
358.46	2460.42
358.45	2462.57
358.43	2461.7
358.42	2461.73
358.4	2462.92
358.38	2465.71
358.37	2466.49
358.35	2466.96
358.34	2468.5
358.32	2472.74
358.3	2476.66
358.29	2478.2
358.27	2480.97
358.25	2482.21
358.24	2480.95
358.22	2479.22
358.21	2478.96
358.19	2478.11
358.17	2478.56
358.16	2480.18
358.14	2483.81
358.13	2486.36
358.11	2488.91
358.09	2491.07
358.08	2492.49
358.06	2493.01
358.04	2493.68
358.03	2493.15
358.01	2492.98
358	2494.14
357.98	2495.68
357.96	2496.44
357.95	2496.87
357.93	2498.28
357.92	2501.63
357.9	2503.46
357.88	2505.14
357.87	2506.76
357.85	2506.7
357.83	2508.37
357.82	2509.93
357.8	2510.73
357.78	2510.97
357.77	2511.12
357.75	2511.23
357.74	2512.36
357.72	2513.6
357.7	2514.56
357.69	2514.63
357.67	2514.23
357.66	2514.87
357.64	2517.1
357.62	2518.49
357.61	2520.28
357.59	2522.42
357.57	2524.49
357.56	2525.93
357.54	2526.17
357.52	2527.03
357.51	2527.34
357.49	2527.49
357.47	2527.63
357.46	2528.55
357.44	2530.07
357.43	2531.42
357.41	2532.17
357.39	2532.69
357.38	2532.61
357.36	2532.54
357.35	2532.76
357.33	2533.32
357.31	2533.26
357.3	2533.17
357.28	2533.64
357.26	2535.06
357.25	2536.99
357.23	2538.77
357.22	2539.84
357.2	2540.76
357.18	2541.32
357.17	2542.03
357.15	2544.1
357.13	2546.03
357.12	2546.8
357.1	2546.94
357.08	2546.54
357.07	2546.76
357.05	2547.17
357.04	2547.32
357.02	2547.86
357	2548.21
356.99	2548.43
356.97	2549.06
356.95	2550.73
356.94	2552.41
356.92	2553.56
356.91	2554.38
356.89	2555.2
356.87	2555.8
356.86	2556.37
356.84	2557.38
356.82	2557.75
356.81	2557.85
356.79	2557.74
356.77	2557.94
356.76	2558.31
356.74	2558.3
356.73	2558.25
356.71	2558.28
356.69	2558.53
356.68	2559.04
356.66	2559.61
356.65	2560.26
356.63	2561.09
356.61	2561.63
356.59	2562.29
356.58	2563.12
356.56	2563.61
356.55	2564.3
356.53	2564.81
356.51	2565.26
356.5	2565.9
356.48	2566.17
356.46	2566.39
356.45	2567
356.43	2567.49
356.41	2568.25
356.4	2569.26
356.38	2569.74
356.36	2570.11
356.35	2570.4
356.33	2570.31
356.31	2570.37
356.3	2570.54
356.28	2570.71
356.27	2570.96
356.25	2571.34
356.24	2571.96
356.22	2573.15
356.2	2574.25
356.19	2575.03
356.17	2575.6
356.15	2575.7
356.13	2575.86
356.12	2576.23
356.1	2576.4
356.09	2576.59
356.07	2576.65
356.05	2576.65
356.04	2576.65
356.02	2576.76
356	2576.93
355.99	2577.11
355.97	2577.3
355.96	2577.61
355.94	2577.84
355.92	2578.43
355.91	2578.95
355.89	2579.24
355.87	2579.39
355.86	2579.53
355.84	2579.91
355.82	2580.41
355.81	2580.94
355.79	2581.46
355.77	2581.92
355.76	2582.04
355.74	2582.08
355.72	2582.16
355.71	2582.24
355.69	2582.12
355.68	2582.03
355.66	2582.01
355.64	2582.19
355.63	2582.68
355.61	2583.48
355.59	2584.28
355.58	2584.92
355.56	2585.31
355.54	2585.87
355.53	2586.21
355.51	2586.28
355.49	2586.19
355.48	2586.17
355.46	2586.07
355.44	2586.11
355.43	2586.24
355.41	2586.31
355.4	2586.41
355.38	2586.55
355.36	2586.81
355.35	2587.27
355.33	2587.72
355.31	2587.93
355.3	2588.17
355.28	2588.42
355.26	2588.54
355.25	2588.61
355.23	2588.7
355.21	2588.65
355.2	2588.57
355.18	2588.45
355.17	2588.35
355.15	2588.33
355.13	2588.53
355.12	2588.88
355.1	2589.32
355.08	2589.6
355.07	2589.98
355.05	2590.45
355.03	2590.71
355.02	2590.88
355	2591.04
354.98	2591.17
354.97	2591.27
354.95	2591.24
354.93	2591.23
354.92	2591.15
354.9	2591.02
354.89	2590.89
354.87	2590.75
354.85	2590.69
354.84	2590.76
354.82	2590.95
354.8	2591.57
354.79	2591.97
354.77	2592.31
354.75	2592.49
354.74	2592.72
354.72	2592.74
354.7	2592.73
354.69	2592.64
354.67	2592.56
354.66	2592.5
354.64	2592.39
354.62	2592.31
354.61	2592.35
354.59	2592.23
354.57	2592.12
354.55	2592.1
354.54	2592.03
354.52	2592.05
354.51	2592.08
354.49	2592.17
354.47	2592.45
354.46	2592.77
354.44	2592.89
354.42	2592.92
354.41	2592.92
354.39	2592.85
354.37	2592.77
354.36	2592.67
354.34	2592.55
354.32	2592.26
354.31	2592.17
354.29	2592.21
354.28	2592.42
354.26	2592.47
354.24	2592.56
354.23	2592.54
354.21	2592.49
354.19	2592.41
354.18	2592.35
354.16	2592.29
354.14	2592.27
354.13	2592.36
354.11	2592.47
354.09	2592.54
354.08	2592.52
354.06	2592.5
354.04	2592.52
354.03	2592.59
354.01	2592.6
353.99	2592.55
353.98	2592.48
353.96	2592.56
353.94	2592.56
353.93	2592.48
353.91	2592.45
353.9	2592.35
353.88	2592.28
353.86	2592.25
353.85	2592.21
353.83	2592.3
353.81	2592.44
353.8	2592.56
353.78	2592.6
353.76	2592.65
353.75	2592.69
353.73	2592.65
353.71	2592.61
353.7	2592.56
353.68	2592.55
353.66	2592.51
353.65	2592.46
353.63	2592.4
353.61	2592.36
353.6	2592.26
353.58	2592.16
353.56	2592.01
353.55	2591.88
353.53	2591.83
353.52	2591.79
353.5	2591.77
353.48	2591.75
353.47	2591.72
353.45	2591.71
353.43	2591.7
353.42	2591.66
353.4	2591.61
353.38	2591.55
353.37	2591.47
353.35	2591.4
353.33	2591.34
353.32	2591.27
353.3	2591.22
353.28	2591.17
353.27	2591.14
353.25	2591.15
353.23	2591.14
353.22	2591.23
353.2	2591.37
353.18	2591.4
353.17	2591.37
353.15	2591.36
353.13	2591.34
353.12	2591.35
353.1	2591.34
353.09	2591.33
353.07	2591.3
353.05	2591.27
353.03	2591.23
353.02	2591.19
353	2591.12
352.99	2591.06
352.97	2591
352.95	2590.96
352.94	2590.92
352.92	2590.89
352.9	2590.88
352.89	2590.94
352.87	2590.92
352.85	2590.87
352.84	2590.84
352.82	2590.8
352.8	2590.77
352.79	2590.77
352.77	2590.76
352.75	2590.74
352.74	2590.69
352.72	2590.66
352.7	2590.65
352.69	2590.64
352.67	2590.58
352.66	2590.54
352.64	2590.48
352.62	2590.46
352.6	2590.47
352.59	2590.48
352.57	2590.46
352.56	2590.43
352.54	2590.39
352.52	2590.36
352.51	2590.32
352.49	2590.28
352.47	2590.22
352.46	2590.15
352.44	2590.09
352.42	2590.05
352.41	2590.03
352.39	2590
352.37	2589.98
352.36	2589.95
352.34	2589.94
352.32	2589.93
352.31	2589.92
352.29	2589.9
352.27	2589.84
352.26	2589.77
352.24	2589.71
352.22	2589.65
352.21	2589.6
352.19	2589.55
352.18	2589.52
352.16	2589.48
352.14	2589.47
352.13	2589.45
352.11	2589.45
352.09	2589.47
352.08	2589.49
352.06	2589.47
352.04	2589.46
352.03	2589.46
352.01	2589.46
351.99	2589.44
351.98	2589.41
351.96	2589.37
351.94	2589.33
351.93	2589.3
351.91	2589.27
351.89	2589.26
351.88	2589.25
351.86	2589.23
351.84	2589.22
351.83	2589.21
351.81	2589.22
351.79	2589.23
351.78	2589.22
351.76	2589.2
351.74	2589.17
351.73	2589.16
351.71	2589.13
351.69	2589.11
351.68	2589.07
351.66	2589.01
351.64	2588.94
351.63	2588.86
351.61	2588.77
351.6	2588.68
351.58	2588.58
351.56	2588.49
351.55	2588.41
351.53	2588.34
351.51	2588.29
351.5	2588.25
351.48	2588.22
351.46	2588.23
351.45	2588.25
351.43	2588.32
351.41	2588.36
351.4	2588.34
351.38	2588.33
351.36	2588.33
351.35	2588.36
351.33	2588.36
351.31	2588.36
351.3	2588.33
351.28	2588.28
351.26	2588.23
351.25	2588.17
351.23	2588.09
351.21	2587.94
351.2	2587.76
351.18	2587.68
351.16	2587.62
351.15	2587.58
351.13	2587.55
351.12	2587.52
351.1	2587.46
351.08	2587.42
351.06	2587.39
351.05	2587.35
351.03	2587.3
351.02	2587.24
351	2587.21
350.98	2587.18
350.97	2587.18
350.95	2587.18
350.93	2587.17
350.92	2587.14
350.9	2587.12
350.88	2587.08
350.87	2587.03
350.85	2586.98
350.83	2586.93
350.82	2586.89
350.8	2586.86
350.78	2586.85
350.77	2586.84
350.75	2586.82
350.73	2586.81
350.72	2586.8
350.7	2586.79
350.68	2586.76
350.67	2586.75
350.65	2586.72
350.63	2586.69
350.62	2586.65
350.6	2586.61
350.58	2586.57
350.57	2586.51
350.55	2586.46
350.53	2586.41
350.52	2586.37
350.5	2586.33
350.48	2586.31
350.47	2586.31
350.45	2586.29
350.44	2586.25
350.42	2586.21
350.4	2586.15
350.39	2586.08
350.37	2586.02
350.35	2585.91
350.34	2585.82
350.32	2585.76
350.3	2585.71
350.29	2585.67
350.27	2585.64
350.25	2585.6
350.24	2585.57
350.22	2585.54
350.2	2585.53
350.19	2585.5
350.17	2585.47
350.15	2585.42
350.14	2585.38
350.12	2585.33
350.1	2585.29
350.09	2585.25
350.07	2585.23
350.05	2585.22
350.04	2585.22
350.02	2585.21
350	2585.19
349.99	2585.15
349.97	2585.1
349.95	2585.04
349.94	2584.97
349.92	2584.88
349.9	2584.79
349.89	2584.73
349.87	2584.66
349.85	2584.61
349.84	2584.55
349.82	2584.48
349.81	2584.4
349.79	2584.33
349.77	2584.3
349.75	2584.26
349.74	2584.23
349.72	2584.2
349.7	2584.19
349.69	2584.15
349.67	2584.12
349.66	2584.1
349.64	2584.05
349.62	2584
349.61	2583.96
349.59	2583.93
349.57	2583.88
349.56	2583.85
349.54	2583.83
349.52	2583.93
349.51	2583.89
349.49	2583.82
349.47	2583.76
349.46	2583.7
349.44	2583.65
349.42	2583.64
349.41	2583.61
349.39	2583.56
349.37	2583.53
349.36	2583.51
349.34	2583.48
349.32	2583.44
349.31	2583.38
349.29	2583.32
349.27	2583.26
349.26	2583.18
349.24	2583.11
349.22	2583.05
349.21	2582.97
349.19	2582.91
349.17	2582.87
349.16	2582.81
349.14	2582.78
349.13	2582.75
349.11	2582.73
349.09	2582.72
349.07	2582.68
349.06	2582.65
349.04	2582.63
349.03	2582.6
349.01	2582.58
348.99	2582.57
348.98	2582.55
348.96	2582.5
348.94	2582.45
348.92	2582.36
348.91	2582.28
348.89	2582.15
348.88	2582.04
348.86	2581.95
348.84	2581.89
348.83	2581.82
348.81	2581.77
348.79	2581.74
348.78	2581.7
348.76	2581.66
348.74	2581.61
348.73	2581.54
348.71	2581.47
348.69	2581.38
348.68	2581.31
348.66	2581.24
348.64	2581.17
348.63	2581.09
348.61	2581.01
348.59	2580.94
348.58	2580.88
348.56	2580.85
348.54	2580.82
348.53	2580.79
348.51	2580.76
348.49	2580.73
348.48	2580.69
348.46	2580.67
348.44	2580.63
348.43	2580.55
348.41	2580.44
348.39	2580.3
348.38	2580.04
348.36	2579.85
348.34	2579.72
348.33	2579.61
348.31	2579.52
348.3	2579.46
348.28	2579.41
348.26	2579.37
348.24	2579.32
348.23	2579.3
348.21	2579.26
348.19	2579.22
348.18	2579.18
348.16	2579.11
348.15	2579.04
348.13	2578.97
348.11	2578.93
348.1	2578.87
348.08	2578.79
348.06	2578.7
348.05	2578.62
348.03	2578.53
348.01	2578.46
348	2578.39
347.98	2578.32
347.96	2578.27
347.95	2578.22
347.93	2578.18
347.91	2578.15
347.9	2578.09
347.88	2578.01
347.86	2577.94
347.85	2577.86
347.83	2577.78
347.81	2577.69
347.8	2577.6
347.78	2577.5
347.76	2577.41
347.75	2577.32
347.73	2577.25
347.71	2577.18
347.7	2577.11
347.68	2577.07
347.66	2577.01
347.65	2576.96
347.63	2576.9
347.61	2576.85
347.6	2576.8
347.58	2576.76
347.56	2576.7
347.55	2576.62
347.53	2576.55
347.52	2576.47
347.5	2576.4
347.48	2576.31
347.46	2576.23
347.45	2576.15
347.43	2576.07
347.42	2576.02
347.4	2575.98
347.38	2575.94
347.37	2575.91
347.35	2575.86
347.33	2575.8
347.32	2575.75
347.3	2575.69
347.28	2575.61
347.27	2575.52
347.25	2575.44
347.23	2575.35
347.22	2575.28
347.2	2575.19
347.18	2575.11
347.17	2575.03
347.15	2574.95
347.13	2574.88
347.12	2574.78
347.1	2574.67
347.08	2574.56
347.07	2574.45
347.05	2574.36
347.03	2574.3
347.02	2574.23
347	2574.17
346.98	2574.14
346.97	2574.07
346.95	2574.01
346.93	2573.94
346.92	2573.87
346.9	2573.79
346.88	2573.71
346.87	2573.65
346.85	2573.6
346.83	2573.57
346.82	2573.56
346.8	2573.55
346.78	2573.5
346.77	2573.45
346.75	2573.36
346.73	2573.29
346.72	2573.2
346.7	2573.11
346.68	2573.05
346.67	2572.97
346.65	2572.92
346.63	2572.88
346.62	2572.83
346.6	2572.78
346.58	2572.73
346.57	2572.65
346.55	2572.59
346.53	2572.5
346.52	2572.39
346.5	2572.28
346.48	2572.14
346.47	2572.02
346.45	2571.93
346.44	2571.88
346.42	2571.86
346.4	2571.83
346.39	2571.84
346.37	2571.88
346.35	2571.96
346.34	2571.98
346.32	2572
346.3	2571.97
346.28	2571.9
346.27	2571.81
346.25	2571.62
346.24	2571.45
346.22	2571.2
346.2	2571
346.19	2570.76
346.17	2570.63
346.15	2570.52
346.14	2570.43
346.12	2570.36
346.1	2570.29
346.09	2570.26
346.07	2570.23
346.05	2570.2
346.04	2570.16
346.02	2570.1
346	2570.04
345.99	2569.99
345.97	2569.94
345.95	2569.9
345.94	2569.83
345.92	2569.79
345.9	2569.74
345.89	2569.74
345.87	2569.72
345.85	2569.65
345.84	2569.56
345.82	2569.44
345.8	2569.32
345.79	2569.15
345.77	2569.01
345.76	2568.9
345.74	2568.82
345.72	2568.74
345.7	2568.67
345.69	2568.62
345.67	2568.58
345.65	2568.53
345.64	2568.48
345.62	2568.4
345.6	2568.32
345.59	2568.24
345.57	2568.15
345.56	2568.05
345.54	2567.96
345.52	2567.87
345.51	2567.82
345.49	2567.75
345.47	2567.67
345.46	2567.58
345.44	2567.51
345.42	2567.44
345.41	2567.38
345.39	2567.31
345.37	2567.24
345.36	2567.18
345.34	2567.12
345.32	2567.08
345.31	2567.03
345.29	2566.99
345.27	2566.94
345.26	2566.89
345.24	2566.84
345.22	2566.78
345.21	2566.71
345.19	2566.65
345.17	2566.56
345.16	2566.48
345.14	2566.38
345.12	2566.29
345.11	2566.24
345.09	2566.17
345.07	2566.1
345.06	2566.04
345.04	2565.97
345.02	2565.9
345.01	2565.85
344.99	2565.78
344.97	2565.71
344.96	2565.61
344.94	2565.51
344.92	2565.44
344.91	2565.35
344.89	2565.28
344.87	2565.22
344.86	2565.16
344.84	2565.11
344.82	2565.04
344.81	2564.96
344.79	2564.9
344.77	2564.84
344.76	2564.78
344.74	2564.71
344.73	2564.64
344.71	2564.54
344.69	2564.45
344.67	2564.36
344.66	2564.2
344.64	2564
344.62	2563.79
344.61	2563.67
344.59	2563.56
344.58	2563.47
344.56	2563.39
344.54	2563.32
344.53	2563.25
344.51	2563.18
344.49	2563.12
344.48	2563.09
344.46	2563.05
344.44	2563
344.43	2562.96
344.41	2562.92
344.39	2562.86
344.37	2562.81
344.36	2562.73
344.34	2562.62
344.33	2562.5
344.31	2562.38
344.29	2562.29
344.28	2562.22
344.26	2562.18
344.24	2562.13
344.23	2562.07
344.21	2562.04
344.19	2562.03
344.18	2562
344.16	2561.96
344.14	2561.92
344.13	2561.85
344.11	2561.76
344.09	2561.69
344.08	2561.61
344.06	2561.52
344.04	2561.41
344.03	2561.3
344.01	2561.19
343.99	2561.1
343.98	2561.02
343.96	2560.96
343.94	2560.92
343.93	2560.85
343.91	2560.77
343.9	2560.71
343.88	2560.67
343.86	2560.62
343.84	2560.56
343.83	2560.49
343.81	2560.4
343.79	2560.3
343.78	2560.21
343.76	2560.14
343.74	2560.04
343.73	2559.95
343.71	2559.87
343.69	2559.81
343.68	2559.75
343.66	2559.71
343.64	2559.67
343.63	2559.63
343.61	2559.56
343.59	2559.48
343.58	2559.41
343.56	2559.33
343.54	2559.23
343.53	2559.14
343.51	2559.05
343.49	2558.95
343.48	2558.86
343.46	2558.81
343.44	2558.74
343.43	2558.69
343.41	2558.63
343.4	2558.56
343.38	2558.48
343.36	2558.39
343.34	2558.3
343.33	2558.21
343.31	2558.13
343.29	2558.07
343.28	2558.13
343.26	2558.1
343.25	2558.09
343.23	2558.06
343.21	2558.03
343.19	2557.95
343.18	2557.87
343.16	2557.75
343.15	2557.52
343.13	2557.33
343.11	2557.2
343.1	2557.11
343.08	2557.01
343.06	2556.91
343.05	2556.82
343.03	2556.75
343.01	2556.71
343	2556.66
342.98	2556.61
342.96	2556.57
342.95	2556.53
342.93	2556.51
342.91	2556.5
342.9	2556.46
342.88	2556.38
342.86	2556.28
342.85	2556.16
342.83	2556.06
342.81	2555.96
342.8	2555.84
342.78	2555.75
342.76	2555.68
342.75	2555.67
342.73	2555.63
342.71	2555.54
342.7	2555.46
342.68	2555.35
342.66	2555.24
342.65	2555.14
342.63	2555.04
342.61	2554.94
342.6	2554.87
342.58	2554.84
342.56	2554.87
342.55	2554.83
342.53	2554.78
342.52	2554.71
342.5	2554.63
342.48	2554.56
342.47	2554.5
342.45	2554.43
342.43	2554.37
342.41	2554.3
342.4	2554.22
342.38	2554.16
342.36	2554.09
342.35	2554.02
342.33	2553.89
342.32	2553.78
342.3	2553.67
342.28	2553.57
342.26	2553.47
342.25	2553.4
342.23	2553.33
342.22	2553.23
342.2	2553.15
342.18	2553.08
342.16	2553.05
342.15	2553
342.13	2552.95
342.12	2552.89
342.1	2552.81
342.08	2552.72
342.07	2552.64
342.05	2552.57
342.03	2552.47
342.02	2552.38
342	2552.32
341.98	2552.25
341.97	2552.19
341.95	2552.16
341.93	2552.11
341.92	2552.07
341.9	2552.03
341.88	2552
341.87	2551.98
341.85	2551.94
341.83	2551.91
341.82	2551.86
341.8	2551.78
341.78	2551.69
341.77	2551.6
341.75	2551.5
341.73	2551.36
341.72	2551.23
341.7	2551.14
341.68	2551.07
341.67	2551.03
341.65	2551.06
341.63	2551.01
341.62	2550.94
341.6	2550.87
341.58	2550.8
341.57	2550.7
341.55	2550.59
341.53	2550.49
341.52	2550.4
341.5	2550.3
341.48	2550.23
341.47	2550.18
341.45	2550.14
341.43	2550.06
341.42	2549.99
341.4	2549.92
341.38	2549.85
341.37	2549.75
341.35	2549.66
341.33	2549.57
341.32	2549.49
341.3	2549.43
341.28	2549.38
341.27	2549.38
341.25	2549.33
341.23	2549.26
341.22	2549.2
341.2	2549.14
341.19	2549.08
341.17	2548.98
341.15	2548.87
341.14	2548.75
341.12	2548.66
341.1	2548.57
341.08	2548.47
341.07	2548.4
341.05	2548.32
341.04	2548.28
341.02	2548.21
341	2548.18
340.99	2548.13
340.97	2548.1
340.95	2548.04
340.93	2547.97
340.92	2547.88
340.9	2547.77
340.89	2547.67
340.87	2547.58
340.85	2547.51
340.84	2547.44
340.82	2547.38
340.8	2547.34
340.79	2547.31
340.77	2547.29
340.75	2547.27
340.74	2547.2
340.72	2547.1
340.7	2546.99
340.68	2546.86
340.67	2546.68
340.65	2546.42
340.64	2546.32
340.62	2546.25
340.6	2546.2
340.59	2546.16
340.57	2546.16
340.55	2546.14
340.54	2546.09
340.52	2546.05
340.5	2546.03
340.49	2545.99
340.47	2545.9
340.45	2545.84
340.44	2545.79
340.42	2545.72
340.4	2545.65
340.39	2545.6
340.37	2545.54
340.35	2545.45
340.34	2545.38
340.32	2545.28
340.3	2545.19
340.29	2545.11
340.27	2545.04
340.25	2544.97
340.24	2544.92
340.22	2544.89
340.2	2544.87
340.19	2544.81
340.17	2544.76
340.15	2544.68
340.14	2544.59
340.12	2544.47
340.1	2544.3
340.09	2544.21
340.07	2544.12
340.05	2544.03
340.04	2543.94
340.02	2543.86
340	2543.76
339.99	2543.67
339.97	2543.56
339.95	2543.44
339.94	2543.31
339.92	2543.2
339.9	2543.11
339.89	2543.03
339.87	2542.96
339.86	2542.9
339.84	2542.85
339.82	2542.78
339.8	2542.69
339.79	2542.61
339.77	2542.53
339.76	2542.44
339.74	2542.33
339.72	2542.23
339.71	2542.12
339.69	2542
339.67	2541.87
339.65	2541.74
339.64	2541.6
339.62	2541.46
339.6	2541.35
339.59	2541.27
339.57	2541.26
339.56	2541.26
339.54	2541.27
339.52	2541.24
339.51	2541.21
339.49	2541.18
339.47	2541.14
339.46	2541.12
339.44	2541.07
339.42	2541.02
339.4	2540.93
339.39	2540.81
339.37	2540.61
339.36	2540.46
339.34	2540.33
339.32	2540.2
339.31	2540.06
339.29	2539.98
339.27	2539.93
339.26	2539.91
339.24	2539.88
339.22	2539.92
339.21	2539.96
339.19	2539.9
339.17	2539.83
339.16	2539.75
339.14	2539.66
339.12	2539.56
339.11	2539.45
339.09	2539.35
339.07	2539.25
339.06	2539.15
339.04	2539.05
339.02	2538.96
339.01	2538.85
338.99	2538.74
338.97	2538.64
338.96	2538.55
338.94	2538.45
338.92	2538.35
338.91	2538.26
338.89	2538.16
338.87	2538.05
338.86	2537.96
338.84	2537.86
338.82	2537.75
338.81	2537.66
338.79	2537.57
338.77	2537.48
338.76	2537.39
338.74	2537.33
338.72	2537.28
338.71	2537.21
338.69	2537.14
338.67	2537.09
338.66	2537.01
338.64	2536.94
338.62	2536.83
338.61	2536.73
338.59	2536.62
338.57	2536.5
338.56	2536.4
338.54	2536.29
338.52	2536.17
338.51	2536.08
338.49	2535.98
338.48	2535.88
338.46	2535.77
338.44	2535.67
338.42	2535.56
338.41	2535.5
338.39	2535.43
338.37	2535.34
338.36	2535.26
338.34	2535.21
338.33	2535.26
338.31	2535.24
338.29	2535.26
338.27	2535.22
338.26	2535.15
338.24	2535.08
338.23	2534.99
338.21	2534.9
338.19	2534.79
338.18	2534.68
338.16	2534.55
338.14	2534.45
338.13	2534.35
338.11	2534.27
338.09	2534.2
338.08	2534.12
338.06	2534.06
338.04	2533.98
338.03	2533.91
338.01	2533.84
337.99	2533.74
337.98	2533.64
337.96	2533.52
337.94	2533.42
337.92	2533.32
337.91	2533.25
337.89	2533.19
337.88	2533.13
337.86	2533.05
337.84	2532.98
337.83	2532.92
337.81	2532.82
337.79	2532.71
337.78	2532.62
337.76	2532.53
337.74	2532.44
337.73	2532.36
337.71	2532.28
337.69	2532.2
337.68	2532.13
337.66	2532.06
337.64	2531.97
337.63	2531.87
337.61	2531.76
337.59	2531.7
337.58	2531.7
337.56	2531.67
337.54	2531.61
337.53	2531.52
337.51	2531.46
337.49	2531.39
337.48	2531.33
337.46	2531.29
337.44	2531.19
337.43	2531.11
337.41	2531.01
337.39	2530.9
337.38	2530.78
337.36	2530.65
337.34	2530.52
337.33	2530.38
337.31	2530.25
337.29	2530.12
337.28	2530.02
337.26	2529.92
337.25	2529.84
337.23	2529.71
337.21	2529.53
337.19	2529.19
337.18	2528.94
337.16	2528.83
337.15	2528.79
337.13	2528.76
337.11	2528.72
337.1	2528.69
337.08	2528.71
337.06	2528.74
337.04	2528.74
337.03	2528.74
337.01	2528.68
336.99	2528.59
336.98	2528.47
336.96	2528.35
336.94	2528.1
336.93	2527.82
336.91	2527.58
336.89	2527.46
336.88	2527.37
336.86	2527.31
336.85	2527.27
336.83	2527.23
336.81	2527.19
336.8	2527.13
336.78	2527.06
336.76	2526.97
336.75	2526.88
336.73	2526.76
336.71	2526.63
336.7	2526.52
336.68	2526.41
336.66	2526.33
336.64	2526.26
336.63	2526.21
336.61	2526.17
336.6	2526.11
336.58	2526.05
336.56	2525.97
336.54	2525.89
336.53	2525.8
336.51	2525.72
336.5	2525.63
336.48	2525.52
336.46	2525.45
336.45	2525.35
336.43	2525.27
336.41	2525.2
336.4	2525.11
336.38	2525.04
336.36	2524.98
336.35	2524.91
336.33	2524.87
336.31	2524.8
336.3	2524.74
336.28	2524.73
336.26	2524.68
336.25	2524.6
336.23	2524.51
336.21	2524.4
336.2	2524.28
336.18	2524.17
336.16	2524.1
336.15	2524.02
336.13	2523.92
336.11	2523.83
336.1	2523.76
336.08	2523.67
336.06	2523.59
336.05	2523.49
336.03	2523.4
336.01	2523.28
336	2523.17
335.98	2523.07
335.96	2522.98
335.95	2522.87
335.93	2522.8
335.91	2522.76
335.9	2522.7
335.88	2522.64
335.86	2522.58
335.85	2522.52
335.83	2522.46
335.81	2522.41
335.8	2522.34
335.78	2522.26
335.76	2522.19
335.75	2522.14
335.73	2522.1
335.71	2522.06
335.7	2522.02
335.68	2521.96
335.66	2521.88
335.65	2521.79
335.63	2521.71
335.61	2521.59
335.6	2521.47
335.58	2521.31
335.56	2521.16
335.55	2521
335.53	2520.87
335.51	2520.75
335.5	2520.65
335.48	2520.57
335.47	2520.5
335.45	2520.43
335.43	2520.37
335.41	2520.3
335.4	2520.23
335.38	2520.14
335.36	2520.07
335.35	2519.99
335.33	2519.9
335.31	2519.8
335.3	2519.73
335.28	2519.65
335.26	2519.57
335.25	2519.47
335.23	2519.36
335.21	2519.24
335.2	2519.1
335.18	2518.99
335.17	2518.88
335.15	2518.74
335.13	2518.64
335.12	2518.54
335.1	2518.47
335.08	2518.4
335.07	2518.34
335.05	2518.27
335.03	2518.2
335.02	2518.14
335	2518.07
334.98	2517.99
334.97	2517.9
334.95	2517.83
334.93	2517.73
334.92	2517.68
334.9	2517.59
334.88	2517.52
334.87	2517.44
334.85	2517.37
334.83	2517.29
334.82	2517.19
334.8	2517.1
334.78	2517.02
334.77	2516.94
334.75	2516.85
334.73	2516.75
334.72	2516.64
334.7	2516.51
334.68	2516.4
334.67	2516.3
334.65	2516.06
334.63	2515.89
334.62	2515.83
334.6	2515.77
334.58	2515.7
334.57	2515.66
334.55	2515.61
334.53	2515.55
334.52	2515.46
334.5	2515.39
334.48	2515.3
334.47	2515.21
334.45	2515.11
334.43	2515.01
334.42	2514.92
334.4	2514.82
334.38	2514.73
334.37	2514.65
334.35	2514.57
334.33	2514.5
334.32	2514.41
334.3	2514.38
334.28	2514.33
334.27	2514.26
334.25	2514.16
334.23	2514.07
334.22	2513.96
334.2	2513.83
334.18	2513.73
334.17	2513.63
334.15	2513.52
334.13	2513.37
334.12	2513.3
334.1	2513.2
334.08	2513.09
334.07	2513.01
334.05	2512.93
334.03	2512.86
334.02	2512.8
334	2512.74
333.98	2512.69
333.97	2512.64
333.95	2512.57
333.93	2512.48
333.92	2512.38
333.9	2512.27
333.88	2512.15
333.87	2512.03
333.85	2511.92
333.83	2511.81
333.82	2511.71
333.8	2511.64
333.78	2511.58
333.77	2511.5
333.75	2511.39
333.73	2511.26
333.72	2511.12
333.7	2510.97
333.68	2510.77
333.67	2510.58
333.65	2510.42
333.63	2510.3
333.62	2510.21
333.6	2510.15
333.59	2510.17
333.57	2510.16
333.55	2510.16
333.53	2510.17
333.52	2510.25
333.5	2510.35
333.48	2510.27
333.47	2510
333.45	2509.81
333.43	2509.68
333.42	2509.55
333.4	2509.42
333.38	2509.28
333.37	2509.13
333.35	2508.98
333.34	2508.85
333.32	2508.75
333.3	2508.65
333.28	2508.56
333.27	2508.49
333.25	2508.43
333.24	2508.36
333.22	2508.34
333.2	2508.3
333.18	2508.23
333.17	2508.14
333.15	2508.03
333.13	2507.93
333.12	2507.81
333.1	2507.71
333.09	2507.62
333.07	2507.53
333.05	2507.42
333.04	2507.31
333.02	2507.22
333	2507.14
332.99	2507.04
332.97	2506.95
332.95	2506.87
332.94	2506.8
332.92	2506.72
332.9	2506.67
332.89	2506.62
332.87	2506.57
332.85	2506.49
332.84	2506.41
332.82	2506.29
332.8	2506.16
332.79	2506.03
332.77	2505.9
332.75	2505.77
332.74	2505.61
332.72	2505.45
332.7	2505.32
332.69	2505.23
332.67	2505.14
332.65	2505.08
332.64	2505.01
332.62	2504.95
332.6	2504.9
332.59	2504.84
332.57	2504.78
332.55	2504.71
332.54	2504.59
332.52	2504.48
332.5	2504.39
332.49	2504.29
332.47	2504.2
332.45	2504.13
332.44	2504.04
332.42	2503.95
332.4	2503.85
332.39	2503.74
332.37	2503.63
332.35	2503.49
332.34	2503.37
332.32	2503.25
332.3	2503.14
332.29	2503.02
332.27	2502.9
332.25	2502.81
332.24	2502.74
332.22	2502.68
332.21	2502.63
332.19	2502.58
332.17	2502.52
332.15	2502.45
332.14	2502.36
332.12	2502.26
332.1	2502.14
332.09	2502.03
332.07	2501.9
332.05	2501.78
332.04	2501.68
332.02	2501.61
332	2501.54
331.99	2501.48
331.97	2501.42
331.95	2501.35
331.94	2501.23
331.92	2501.12
331.9	2500.99
331.89	2500.85
331.87	2500.7
331.85	2500.56
331.84	2500.39
331.82	2500.26
331.8	2500.15
331.79	2500.05
331.77	2499.95
331.76	2499.84
331.74	2499.74
331.72	2499.62
331.7	2499.52
331.69	2499.45
331.67	2499.37
331.66	2499.3
331.64	2499.23
331.62	2499.16
331.61	2499.1
331.59	2499
331.57	2498.9
331.56	2498.81
331.54	2498.73
331.52	2498.64
331.5	2498.55
331.49	2498.46
331.47	2498.36
331.45	2498.15
331.44	2497.97
331.42	2497.74
331.41	2497.57
331.39	2497.47
331.37	2497.36
331.36	2497.26
331.34	2497.17
331.32	2497.08
331.31	2497
331.29	2496.91
331.27	2496.83
331.25	2496.75
331.24	2496.66
331.22	2496.57
331.2	2496.48
331.19	2496.39
331.17	2496.32
331.15	2496.24
331.14	2496.16
331.12	2496.09
331.11	2496.03
331.09	2495.95
331.07	2495.85
331.06	2495.74
331.04	2495.62
331.02	2495.52
331.01	2495.42
330.99	2495.34
330.97	2495.29
330.96	2495.24
330.94	2495.19
330.92	2495.16
330.91	2495.11
330.89	2495.06
330.87	2494.98
330.85	2494.87
330.84	2494.78
330.82	2494.67
330.81	2494.57
330.79	2494.48
330.77	2494.41
330.76	2494.32
330.74	2494.22
330.72	2494.13
330.71	2494.04
330.69	2493.94
330.67	2493.83
330.66	2493.73
330.64	2493.65
330.62	2493.56
330.61	2493.49
330.59	2493.43
330.57	2493.38
330.55	2493.3
330.54	2493.23
330.52	2493.1
330.51	2492.95
330.49	2492.77
330.47	2492.63
330.46	2492.47
330.44	2492.34
330.42	2492.22
330.41	2492.1
330.39	2492.01
330.37	2491.92
330.36	2491.85
330.34	2491.8
330.32	2491.76
330.31	2491.72
330.29	2491.69
330.27	2491.67
330.26	2491.65
330.24	2491.6
330.22	2491.53
330.21	2491.44
330.19	2491.33
330.17	2491.17
330.16	2491.02
330.14	2490.75
330.12	2490.27
330.11	2489.95
330.09	2489.83
330.07	2489.82
330.06	2489.74
330.04	2489.65
330.03	2489.54
330.01	2489.41
329.99	2489.29
329.97	2489.19
329.96	2489.1
329.94	2489.02
329.92	2488.93
329.91	2488.85
329.89	2488.84
329.87	2488.78
329.86	2488.71
329.84	2488.6
329.82	2488.49
329.81	2488.34
329.79	2488.22
329.77	2488.12
329.76	2488.05
329.74	2487.97
329.72	2487.9
329.71	2487.8
329.69	2487.7
329.67	2487.6
329.66	2487.51
329.64	2487.43
329.62	2487.34
329.61	2487.26
329.59	2487.16
329.58	2487.09
329.56	2487.01
329.54	2486.94
329.52	2486.84
329.51	2486.73
329.49	2486.64
329.48	2486.56
329.46	2486.47
329.44	2486.37
329.42	2486.25
329.41	2486.14
329.39	2486.01
329.38	2485.91
329.36	2485.82
329.34	2485.73
329.33	2485.66
329.31	2485.61
329.29	2485.55
329.28	2485.5
329.26	2485.42
329.24	2485.3
329.23	2485.17
329.21	2485.06
329.19	2484.94
329.18	2484.83
329.16	2484.74
329.14	2484.67
329.13	2484.58
329.11	2484.51
329.09	2484.45
329.07	2484.38
329.06	2484.29
329.04	2484.2
329.03	2484.09
329.01	2483.95
328.99	2483.84
328.98	2483.72
328.96	2483.6
328.94	2483.46
328.93	2483.34
328.91	2483.2
328.89	2483.09
328.88	2482.99
328.86	2482.91
328.84	2482.85
328.83	2482.78
328.81	2482.72
328.79	2482.67
328.78	2482.59
328.76	2482.48
328.74	2482.38
328.73	2482.27
328.71	2482.11
328.69	2481.93
328.68	2481.85
328.66	2481.77
328.64	2481.69
328.63	2481.6
328.61	2481.53
328.59	2481.44
328.58	2481.36
328.56	2481.27
328.54	2481.17
328.53	2481.07
328.51	2480.96
328.49	2480.88
328.48	2480.78
328.46	2480.68
328.44	2480.58
328.43	2480.46
328.41	2480.29
328.39	2480.17
328.38	2480.07
328.36	2479.98
328.34	2479.89
328.33	2479.83
328.31	2479.86
328.29	2479.84
328.28	2479.81
328.26	2479.78
328.24	2479.71
328.23	2479.6
328.21	2479.42
328.19	2479.22
328.18	2479.08
328.16	2478.94
328.14	2478.83
328.13	2478.73
328.11	2478.65
328.09	2478.57
328.08	2478.5
328.06	2478.44
328.04	2478.38
328.03	2478.34
328.01	2478.27
327.99	2478.19
327.98	2478.13
327.96	2478.07
327.94	2478
327.93	2477.92
327.91	2477.84
327.89	2477.74
327.88	2477.63
327.86	2477.53
327.84	2477.43
327.83	2477.34
327.81	2477.22
327.79	2477.11
327.78	2477
327.76	2476.92
327.74	2476.84
327.73	2476.75
327.71	2476.66
327.7	2476.55
327.68	2476.45
327.66	2476.35
327.64	2476.26
327.63	2476.15
327.61	2476.05
327.59	2475.96
327.58	2475.89
327.56	2475.82
327.54	2475.78
327.53	2475.72
327.51	2475.65
327.49	2475.58
327.48	2475.52
327.46	2475.46
327.44	2475.38
327.43	2475.28
327.41	2475.19
327.39	2475.07
327.38	2474.95
327.36	2474.85
327.35	2474.77
327.33	2474.66
327.31	2474.58
327.29	2474.52
327.28	2474.48
327.26	2474.39
327.25	2474.28
327.23	2474.16
327.21	2474.03
327.19	2473.88
327.18	2473.76
327.16	2473.69
327.14	2473.62
327.13	2473.63
327.11	2473.65
327.1	2473.71
327.08	2473.7
327.06	2473.61
327.05	2473.53
327.03	2473.43
327.01	2473.35
327	2473.26
326.98	2473.2
326.96	2473.16
326.95	2473.13
326.93	2473.08
326.91	2473.04
326.9	2473
326.88	2472.93
326.86	2472.88
326.84	2472.82
326.83	2472.72
326.81	2472.4
326.79	2471.96
326.78	2471.66
326.76	2471.41
326.75	2471.22
326.73	2471.11
326.71	2471.02
326.7	2470.94
326.68	2470.87
326.66	2470.84
326.65	2470.81
326.63	2470.74
326.61	2470.67
326.59	2470.57
326.58	2470.48
326.56	2470.4
326.55	2470.3
326.53	2470.2
326.51	2470.1
326.5	2470.03
326.48	2469.94
326.46	2469.87
326.45	2469.78
326.43	2469.69
326.41	2469.57
326.4	2469.48
326.38	2469.39
326.36	2469.32
326.34	2469.21
326.33	2469.12
326.31	2469
326.3	2468.86
326.28	2468.67
326.26	2468.45
326.25	2468.32
326.23	2468.19
326.21	2468.07
326.2	2467.96
326.18	2467.86
326.16	2467.77
326.15	2467.69
326.13	2467.6
326.11	2467.54
326.09	2467.46
326.08	2467.39
326.06	2467.34
326.05	2467.25
326.03	2467.18
326.01	2467.08
326	2467
325.98	2466.9
325.96	2466.8
325.95	2466.7
325.93	2466.58
325.91	2466.47
325.9	2466.33
325.88	2466.21
325.86	2466.11
325.85	2466.02
325.83	2465.94
325.81	2465.88
325.8	2465.82
325.78	2465.77
325.76	2465.72
325.75	2465.66
325.73	2465.61
325.71	2465.53
325.7	2465.46
325.68	2465.39
325.66	2465.3
325.65	2465.19
325.63	2465.09
325.61	2464.97
325.6	2464.86
325.58	2464.74
325.56	2464.63
325.55	2464.51
325.53	2464.4
325.51	2464.29
325.5	2464.18
325.48	2464.08
325.46	2463.99
325.45	2463.89
325.43	2463.76
325.41	2463.6
325.4	2463.51
325.38	2463.43
325.36	2463.34
325.35	2463.25
325.33	2463.17
325.31	2463.1
325.3	2463.03
325.28	2462.95
325.26	2462.88
325.25	2462.8
325.23	2462.7
325.21	2462.59
325.2	2462.51
325.18	2462.34
325.16	2462.23
325.15	2462.14
325.13	2462.04
325.11	2461.94
325.1	2461.82
325.08	2461.72
325.06	2461.63
325.05	2461.53
325.03	2461.42
325.01	2461.31
325	2461.14
324.98	2461.01
324.96	2460.91
324.95	2460.81
324.93	2460.68
324.91	2460.57
324.9	2460.45
324.88	2460.35
324.86	2460.29
324.85	2460.39
324.83	2460.69
324.81	2460.88
324.8	2461.06
324.78	2461.14
324.76	2461.08
324.75	2460.99
324.73	2460.86
324.71	2460.74
324.7	2460.61
324.68	2460.5
324.66	2460.39
324.65	2460.3
324.63	2460.19
324.61	2460.07
324.6	2459.96
324.58	2459.86
324.57	2459.75
324.55	2459.63
324.53	2459.51
324.51	2459.41
324.5	2459.33
324.48	2459.27
324.46	2459.21
324.45	2459.13
324.43	2459.02
324.41	2458.93
324.4	2458.83
324.38	2458.67
324.36	2458.46
324.35	2458.31
324.33	2458.1
324.31	2457.89
324.3	2457.78
324.28	2457.68
324.27	2457.6
324.25	2457.51
324.23	2457.46
324.22	2457.43
324.2	2457.37
324.18	2457.31
324.16	2457.24
324.15	2457.15
324.13	2456.99
324.11	2456.83
324.1	2456.7
324.08	2456.56
324.07	2456.44
324.05	2456.31
324.03	2456.18
324.01	2456.04
324	2455.93
323.98	2455.8
323.97	2455.69
323.95	2455.59
323.93	2455.49
323.92	2455.4
323.9	2455.31
323.88	2455.22
323.87	2455.14
323.85	2455.05
323.83	2454.96
323.82	2454.85
323.8	2454.75
323.78	2454.67
323.77	2454.59
323.75	2454.53
323.73	2454.48
323.72	2454.46
323.7	2454.42
323.68	2454.46
323.67	2454.57
323.65	2454.73
323.63	2454.64
323.62	2454.52
323.6	2454.37
323.58	2454.15
323.57	2454.01
323.55	2453.87
323.53	2453.74
323.52	2453.61
323.5	2453.49
323.48	2453.4
323.47	2453.31
323.45	2453.21
323.43	2453.13
323.42	2453.04
323.4	2452.94
323.38	2452.85
323.37	2452.75
323.35	2452.63
323.33	2452.49
323.32	2452.36
323.3	2452.26
323.28	2452.16
323.27	2452.08
323.25	2452
323.23	2451.93
323.22	2451.86
323.2	2451.79
323.18	2451.72
323.17	2451.65
323.15	2451.48
323.13	2451.37
323.12	2451.27
323.1	2451.17
323.08	2451.06
323.07	2450.94
323.05	2450.81
323.03	2450.68
323.02	2450.57
323	2450.45
322.98	2450.35
322.97	2450.23
322.95	2450.14
322.93	2450.03
322.92	2449.95
322.9	2449.83
322.88	2449.69
322.87	2449.58
322.85	2449.46
322.83	2449.36
322.82	2449.29
322.8	2449.22
322.78	2449.17
322.77	2449.1
322.75	2449.01
322.73	2448.93
322.72	2448.87
322.7	2448.81
322.68	2448.81
322.67	2448.75
322.65	2448.65
322.63	2448.57
322.62	2448.47
322.6	2448.35
322.58	2448.2
322.57	2447.9
322.55	2447.76
322.53	2447.61
322.52	2447.5
322.5	2447.4
322.48	2447.27
322.47	2447.13
322.45	2446.99
322.43	2446.85
322.42	2446.69
322.4	2446.55
322.39	2446.43
322.37	2446.33
322.35	2446.24
322.33	2446.16
322.32	2446.14
322.3	2446.07
322.28	2445.99
322.27	2445.9
322.25	2445.82
322.23	2445.72
322.22	2445.62
322.2	2445.54
322.18	2445.46
322.17	2445.41
322.15	2445.32
322.13	2445.28
322.12	2445.21
322.1	2445.1
322.08	2444.85
322.07	2444.73
322.05	2444.61
322.03	2444.49
322.02	2444.38
322	2444.27
321.99	2444.16
321.97	2444.08
321.95	2443.98
321.93	2443.88
321.92	2443.78
321.9	2443.69
321.89	2443.58
321.87	2443.47
321.85	2443.38
321.83	2443.27
321.82	2443.18
321.8	2443.07
321.79	2442.98
321.77	2442.86
321.75	2442.67
321.73	2442.51
321.72	2442.4
321.7	2442.3
321.69	2442.23
321.67	2442.16
321.65	2442.1
321.64	2442.02
321.62	2441.93
321.6	2441.85
321.58	2441.75
321.57	2441.6
321.55	2441.24
321.54	2440.9
321.52	2440.52
321.5	2440.27
321.49	2440.17
321.47	2440.04
321.45	2439.95
321.44	2439.87
321.42	2439.8
321.4	2439.72
321.39	2439.63
321.37	2439.56
321.35	2439.49
321.34	2439.43
321.32	2439.4
321.3	2439.38
321.29	2439.36
321.27	2439.33
321.25	2439.28
321.23	2439.2
321.22	2439.1
321.2	2438.98
321.19	2438.84
321.17	2438.61
321.15	2438.47
321.14	2438.37
321.12	2438.29
321.1	2438.21
321.09	2438.15
321.07	2438.15
321.05	2438.1
321.03	2438.03
321.02	2437.96
321	2437.87
320.99	2437.8
320.97	2437.72
320.95	2437.66
320.94	2437.58
320.92	2437.48
320.9	2437.39
320.88	2437.3
320.87	2437.19
320.85	2437.07
320.84	2436.92
320.82	2436.78
320.8	2436.66
320.79	2436.57
320.77	2436.47
320.75	2436.4
320.74	2436.33
320.72	2436.29
320.7	2436.29
320.68	2436.26
320.67	2436.3
320.65	2436.33
320.64	2436.36
320.62	2436.3
320.6	2436.24
320.59	2436.17
320.57	2436.09
320.55	2436
320.54	2435.9
320.52	2435.8
320.5	2435.66
320.49	2435.52
320.47	2435.4
320.45	2435.29
320.44	2435.18
320.42	2435.07
320.4	2434.99
320.39	2434.9
320.37	2434.82
320.35	2434.78
320.34	2434.72
320.32	2434.67
320.3	2434.62
320.29	2434.62
320.27	2434.57
320.25	2434.49
320.24	2434.38
320.22	2434.25
320.2	2434.07
320.19	2433.9
320.17	2433.69
320.15	2433.55
320.14	2433.46
320.12	2433.46
320.1	2433.65
320.09	2433.76
320.07	2433.72
320.05	2433.67
320.04	2433.58
320.02	2433.5
320	2433.38
319.99	2433.25
319.97	2433.08
319.95	2432.8
319.94	2432.62
319.92	2432.48
319.9	2432.24
319.89	2431.95
319.87	2431.8
319.85	2431.67
319.84	2431.56
319.82	2431.49
319.8	2431.44
319.79	2431.41
319.77	2431.35
319.75	2431.29
319.74	2431.24
319.72	2431.18
319.7	2431.08
319.69	2431
319.67	2430.91
319.65	2430.82
319.64	2430.74
319.62	2430.64
319.6	2430.52
319.59	2430.39
319.57	2430.23
319.55	2430.09
319.54	2429.96
319.52	2429.74
319.5	2429.63
319.49	2429.53
319.47	2429.48
319.45	2429.39
319.44	2429.31
319.42	2429.2
319.4	2428.99
319.39	2428.73
319.37	2428.54
319.35	2428.34
319.34	2428.04
319.32	2427.77
319.3	2427.66
319.29	2427.55
319.27	2427.47
319.25	2427.4
319.24	2427.3
319.22	2427.21
319.2	2427.1
319.19	2426.98
319.17	2426.87
319.15	2426.76
319.14	2426.63
319.12	2426.47
319.1	2426.22
319.09	2425.9
319.07	2425.44
319.05	2424.91
319.04	2424.58
319.02	2424.29
319.01	2423.95
318.99	2423.71
318.97	2423.42
318.96	2423.17
318.94	2422.88
318.92	2422.52
318.9	2422.14
318.89	2421.81
318.87	2421.52
318.86	2421.22
318.84	2421.02
318.82	2420.88
318.8	2420.74
318.79	2420.63
318.77	2420.53
318.75	2420.42
318.74	2420.3
318.72	2420.17
318.7	2420.05
318.69	2419.91
318.67	2419.61
318.66	2419.42
318.64	2419.72
318.62	2421.15
318.6	2424.32
318.59	2428.42
318.57	2432.32
318.55	2436.24
318.54	2439.88
318.52	2444.82
318.51	2451.31
318.49	2456.13
318.47	2459.12
318.46	2462.68
318.44	2466.05
318.42	2470.13
318.41	2472.59
318.39	2475.16
318.37	2476.09
318.36	2476.8
318.34	2477.9
318.32	2479.86
318.3	2481.41
318.29	2482.89
318.27	2484.85
318.26	2485.89
318.24	2486.49
318.22	2486.4
318.21	2486.61
318.19	2486.08
318.17	2483.7
318.16	2481.92
318.14	2481.27
318.12	2480.66
318.11	2479.74
318.09	2478.81
318.07	2477.29
318.06	2475.46
318.04	2473.42
318.02	2472.23
318.01	2471.48
317.99	2470.61
317.97	2469.86
317.96	2469.16
317.94	2468.4
317.92	2467.41
317.91	2466.28
317.89	2464.96
317.87	2463.65
317.86	2462.33
317.84	2461.44
317.82	2460.83
317.81	2460.29
317.79	2459.95
317.77	2459.67
317.76	2459.38
317.74	2459.09
317.72	2458.8
317.71	2458.5
317.69	2458.21
317.67	2457.86
317.66	2457.49
317.64	2457.05
317.62	2456.66
317.61	2456.37
317.59	2456.06
317.57	2455.66
317.56	2455.19
317.54	2454.73
317.52	2454.3
317.51	2453.93
317.49	2453.5
317.47	2453.13
317.46	2452.78
317.44	2452.32
317.42	2451.97
317.41	2451.63
317.39	2451.35
317.37	2451.09
317.36	2450.83
317.34	2450.59
317.32	2450.35
317.31	2450.08
317.29	2449.81
317.27	2449.54
317.25	2449.28
317.24	2449.01
317.22	2448.72
317.21	2448.43
317.19	2448.13
317.17	2447.8
317.16	2447.3
317.14	2446.83
317.12	2446.05
317.11	2445.39
317.09	2444.88
317.07	2444.55
317.06	2444.23
317.04	2443.92
317.02	2443.58
317.01	2443.3
316.99	2443.05
316.97	2442.8
316.96	2442.56
316.94	2442.34
316.92	2442.09
316.91	2441.82
316.89	2441.58
316.87	2441.31
316.86	2441.02
316.84	2440.73
316.82	2440.43
316.81	2440.13
316.79	2439.83
316.77	2439.52
316.76	2439.2
316.74	2438.87
316.72	2438.58
316.71	2438.32
316.69	2438.06
316.67	2437.83
316.66	2437.6
316.64	2437.35
316.62	2437.12
316.61	2436.88
316.59	2436.63
316.57	2436.39
316.56	2436.15
316.54	2435.88
316.52	2435.63
316.51	2435.35
316.49	2435.1
316.47	2434.84
316.46	2434.58
316.44	2434.33
316.42	2434.1
316.41	2433.86
316.39	2433.57
316.37	2433.29
316.36	2433.02
316.34	2432.74
316.32	2432.46
316.31	2432.12
316.29	2431.87
316.27	2431.64
316.26	2431.43
316.24	2431.24
316.22	2431.03
316.21	2430.78
316.19	2430.52
316.17	2430.28
316.16	2430.05
316.14	2429.82
316.12	2429.57
316.11	2429.33
316.09	2429.1
316.07	2428.88
316.06	2428.64
316.04	2428.39
316.02	2428.04
316.01	2427.61
315.99	2427.3
315.97	2427.05
315.96	2426.78
315.94	2426.54
315.92	2426.31
315.91	2426.1
315.89	2425.91
315.87	2425.72
315.86	2425.53
315.84	2425.34
315.82	2425.15
315.81	2424.97
315.79	2424.77
315.77	2424.55
315.76	2424.33
315.74	2424.09
315.72	2423.85
315.71	2423.61
315.69	2423.33
315.67	2423.01
315.66	2422.77
315.64	2422.56
315.62	2422.34
315.61	2422.11
315.59	2421.87
315.57	2421.66
315.56	2421.46
315.54	2421.23
315.53	2421.01
315.51	2420.79
315.49	2420.57
315.47	2420.35
315.46	2420.15
315.44	2419.94
315.42	2419.72
315.41	2419.51
315.39	2419.3
315.38	2419.13
315.36	2418.92
315.34	2418.69
315.33	2418.48
315.31	2418.28
315.29	2418.09
315.27	2417.87
315.26	2417.66
315.24	2417.45
315.22	2417.24
315.21	2417.02
315.19	2416.81
315.18	2416.6
315.16	2416.36
315.14	2416.15
315.12	2415.91
315.11	2415.67
315.09	2415.43
315.08	2415.12
315.06	2414.9
315.04	2414.68
315.03	2414.47
315.01	2414.24
314.99	2414.03
314.98	2413.84
314.96	2413.64
314.94	2413.46
314.92	2413.29
314.91	2413.13
314.89	2412.95
314.88	2412.8
314.86	2412.66
314.84	2412.53
314.82	2412.36
314.81	2412.17
314.79	2411.97
314.78	2411.78
314.76	2411.6
314.74	2411.43
314.72	2411.25
314.71	2411.07
314.69	2410.91
314.67	2410.77
314.66	2410.64
314.64	2410.52
314.63	2410.39
314.61	2410.23
314.59	2410.07
314.57	2409.92
314.56	2409.78
314.54	2409.62
314.52	2409.47
314.51	2409.31
314.49	2409.12
314.47	2408.9
314.46	2408.68
314.44	2408.46
314.42	2408.25
314.41	2408.04
314.39	2407.85
314.38	2407.67
314.36	2407.5
314.34	2407.31
314.33	2407.15
314.31	2406.99
314.29	2406.83
314.27	2406.66
314.26	2406.48
314.24	2406.3
314.23	2406.16
314.21	2406.03
314.19	2405.94
314.18	2405.84
314.16	2405.69
314.14	2405.55
314.13	2405.38
314.11	2405.22
314.09	2404.92
314.08	2404.74
314.06	2404.52
314.04	2404.33
314.03	2404.16
314.01	2404
313.99	2403.84
313.97	2403.66
313.96	2403.49
313.94	2403.32
313.93	2403.14
313.91	2402.96
313.89	2402.79
313.88	2402.58
313.86	2402.39
313.84	2402.22
313.83	2402.07
313.81	2401.91
313.79	2401.76
313.78	2401.64
313.76	2401.5
313.74	2401.38
313.73	2401.26
313.71	2401.14
313.69	2401.02
313.68	2400.89
313.66	2400.75
313.64	2400.59
313.63	2400.4
313.61	2400.24
313.59	2400.07
313.58	2399.89
313.56	2399.69
313.54	2399.51
313.53	2399.33
313.51	2399.16
313.49	2398.97
313.48	2398.78
313.46	2398.57
313.44	2398.38
313.43	2398.19
313.41	2398.04
313.39	2397.92
313.38	2397.78
313.36	2397.66
313.34	2397.53
313.33	2397.45
313.31	2397.33
313.29	2397.2
313.28	2397.04
313.26	2396.88
313.24	2396.7
313.22	2396.52
313.21	2396.33
313.19	2396.14
313.18	2395.96
313.16	2395.77
313.14	2395.6
313.13	2395.44
313.11	2395.3
313.09	2395.14
313.08	2395
313.06	2394.88
313.04	2394.76
313.03	2394.63
313.01	2394.48
312.99	2394.41
312.98	2394.32
312.96	2394.2
312.94	2394.07
312.93	2393.94
312.91	2393.79
312.89	2393.62
312.88	2393.47
312.86	2393.31
312.84	2393.12
312.83	2392.9
312.81	2392.75
312.79	2392.62
312.78	2392.47
312.76	2392.34
312.74	2392.18
312.73	2392.01
312.71	2391.86
312.69	2391.69
312.68	2391.53
312.66	2391.37
312.64	2391.22
312.63	2391.08
312.61	2390.94
312.59	2390.82
312.58	2390.72
312.56	2390.63
312.54	2390.53
312.53	2390.51
312.51	2390.44
312.49	2390.34
312.48	2390.24
312.46	2390.11
312.44	2389.98
312.43	2389.84
312.41	2389.7
312.39	2389.54
312.38	2389.38
312.36	2389.21
312.34	2389.07
312.33	2388.95
312.31	2388.86
312.29	2388.76
312.28	2388.66
312.26	2388.55
312.24	2388.44
312.23	2388.33
312.21	2388.2
312.19	2388.04
312.18	2387.82
312.16	2387.62
312.14	2387.46
312.13	2387.36
312.11	2387.27
312.09	2387.17
312.08	2387.09
312.06	2386.99
312.04	2386.87
312.03	2386.72
312.01	2386.58
311.99	2386.44
311.98	2386.28
311.96	2386.13
311.94	2386.01
311.93	2385.89
311.91	2385.8
311.89	2385.71
311.88	2385.61
311.86	2385.51
311.84	2385.4
311.83	2385.3
311.81	2385.2
311.79	2385.1
311.78	2385.03
311.76	2384.96
311.74	2384.84
311.73	2384.73
311.71	2384.61
311.69	2384.48
311.68	2384.35
311.66	2384.21
311.64	2384.07
311.63	2383.93
311.61	2383.81
311.59	2383.71
311.58	2383.62
311.56	2383.49
311.54	2383.41
311.53	2383.4
311.51	2383.37
311.49	2383.29
311.48	2383.19
311.46	2383.12
311.44	2382.99
311.43	2382.87
311.41	2382.72
311.4	2382.61
311.38	2382.47
311.36	2382.37
311.34	2382.26
311.33	2382.16
311.31	2382.05
311.29	2381.93
311.28	2381.8
311.26	2381.68
311.24	2381.56
311.23	2381.45
311.21	2381.34
311.19	2381.22
311.18	2381.14
311.16	2381.05
311.14	2380.95
311.13	2380.86
311.11	2380.77
311.09	2380.66
311.08	2380.57
311.06	2380.47
311.05	2380.36
311.03	2380.09
311.01	2379.82
311	2379.67
310.98	2379.53
310.96	2379.41
310.95	2379.31
310.93	2379.2
310.91	2379.11
310.9	2379.04
310.88	2378.96
310.86	2378.87
310.84	2378.75
310.83	2378.61
310.81	2378.44
310.79	2378.26
310.78	2378.09
310.76	2377.93
310.74	2377.79
310.73	2377.69
310.71	2377.59
310.7	2377.5
310.68	2377.39
310.66	2377.28
310.65	2377.18
310.63	2377.08
310.61	2376.97
310.59	2376.85
310.58	2376.74
310.56	2376.64
310.54	2376.56
310.53	2376.46
310.51	2376.37
310.5	2376.29
310.48	2376.16
310.46	2376.06
310.45	2375.96
310.43	2375.85
310.41	2375.72
310.4	2375.63
310.38	2375.55
310.36	2375.45
310.35	2375.34
310.33	2375.2
310.31	2375.09
310.3	2374.95
310.28	2374.81
310.26	2374.67
310.24	2374.53
310.23	2374.4
310.21	2374.29
310.2	2374.19
310.18	2374.11
310.16	2374.04
310.15	2373.94
310.13	2373.86
310.11	2373.76
310.1	2373.67
310.08	2373.56
310.06	2373.48
310.05	2373.41
310.03	2373.4
310.01	2373.36
310	2373.29
309.98	2373.22
309.96	2373.12
309.95	2373.06
309.93	2372.98
309.91	2372.89
309.9	2372.78
309.88	2372.65
309.86	2372.52
309.85	2372.4
309.83	2372.25
309.81	2372.1
309.8	2371.95
309.78	2371.8
309.76	2371.68
309.74	2371.56
309.73	2371.48
309.71	2371.4
309.7	2371.33
309.68	2371.33
309.66	2371.27
309.65	2371.17
309.63	2371.06
309.61	2370.91
309.6	2370.75
309.58	2370.6
309.56	2370.44
309.55	2370.31
309.53	2370.17
309.51	2370.05
309.5	2369.92
309.48	2369.83
309.46	2369.73
309.44	2369.61
309.43	2369.48
309.41	2369.35
309.4	2369.25
309.38	2369.15
309.36	2369.09
309.35	2369.18
309.33	2369.16
309.31	2369.07
309.3	2369
309.28	2368.93
309.26	2368.85
309.25	2368.72
309.23	2368.61
309.21	2368.49
309.2	2368.35
309.18	2368.24
309.16	2368.15
309.15	2368.03
309.13	2367.89
309.11	2367.75
309.1	2367.6
309.08	2367.44
309.06	2367.31
309.05	2367.17
309.03	2367.04
309.01	2366.93
309	2366.85
308.98	2366.77
308.96	2366.7
308.95	2366.6
308.93	2366.47
308.91	2366.32
308.89	2366.17
308.88	2366.03
308.86	2365.91
308.84	2365.8
308.83	2365.73
308.81	2365.67
308.79	2365.58
308.78	2365.55
308.76	2365.46
308.75	2365.34
308.73	2365.2
308.71	2365.04
308.7	2364.87
308.68	2364.71
308.66	2364.57
308.65	2364.42
308.63	2364.31
308.61	2364.21
308.6	2364.12
308.58	2364.02
308.56	2363.92
308.55	2363.82
308.53	2363.69
308.51	2363.59
308.5	2363.46
308.48	2363.33
308.46	2363.18
308.45	2363.06
308.43	2362.93
308.41	2362.8
308.4	2362.67
308.38	2362.54
308.36	2362.44
308.35	2362.34
308.33	2362.24
308.31	2362.11
308.3	2361.97
308.28	2361.83
308.26	2361.71
308.25	2361.62
308.23	2361.62
308.21	2361.54
308.2	2361.45
308.18	2361.36
308.16	2361.28
308.15	2361.19
308.13	2361.09
308.11	2360.97
308.1	2360.83
308.08	2360.67
308.06	2360.54
308.05	2360.44
308.03	2360.32
308.01	2360.22
308	2360.1
307.98	2359.99
307.96	2359.91
307.95	2359.83
307.93	2359.73
307.91	2359.65
307.9	2359.61
307.88	2359.51
307.86	2359.31
307.85	2359.18
307.83	2359.03
307.81	2358.91
307.8	2358.77
307.78	2358.69
307.76	2358.63
307.75	2358.57
307.73	2358.53
307.71	2358.48
307.7	2358.42
307.68	2358.32
307.66	2358.18
307.65	2358.03
307.63	2357.88
307.61	2357.73
307.6	2357.56
307.58	2357.4
307.56	2357.26
307.55	2357.15
307.53	2357.06
307.51	2357.02
307.5	2356.86
307.48	2356.62
307.46	2356.32
307.45	2356.19
307.43	2356.07
307.41	2355.94
307.4	2355.82
307.38	2355.71
307.36	2355.59
307.35	2355.5
307.33	2355.41
307.31	2355.34
307.3	2355.22
307.28	2355.11
307.26	2354.99
307.25	2354.85
307.23	2354.73
307.21	2354.59
307.2	2354.48
307.18	2354.39
307.16	2354.31
307.15	2354.24
307.13	2354.15
307.11	2354.07
307.1	2353.98
307.08	2353.9
307.06	2353.8
307.05	2353.7
307.03	2353.56
307.01	2353.43
307	2353.28
306.98	2353.15
306.96	2353.03
306.95	2352.89
306.93	2352.75
306.91	2352.64
306.9	2352.55
306.88	2352.52
306.86	2352.47
306.85	2352.4
306.83	2352.17
306.81	2351.67
306.8	2351.4
306.78	2351.23
306.77	2351.07
306.75	2350.94
306.73	2350.83
306.71	2350.73
306.7	2350.64
306.68	2350.6
306.66	2350.63
306.65	2350.55
306.63	2350.46
306.62	2350.38
306.6	2350.25
306.58	2350.1
306.56	2349.93
306.55	2349.81
306.53	2349.69
306.52	2349.56
306.5	2349.43
306.48	2349.31
306.46	2349.18
306.45	2349.05
306.43	2348.95
306.41	2348.84
306.4	2348.75
306.38	2348.65
306.36	2348.56
306.35	2348.49
306.33	2348.43
306.32	2348.36
306.3	2348.29
306.28	2348.18
306.27	2348.08
306.25	2347.97
306.23	2347.84
306.21	2347.7
306.2	2347.57
306.18	2347.43
306.16	2347.3
306.15	2347.15
306.13	2346.94
306.12	2346.82
306.1	2346.7
306.08	2346.62
306.06	2346.55
306.05	2346.48
306.03	2346.45
306.01	2346.49
306	2346.45
305.98	2346.4
305.96	2346.33
305.95	2346.26
305.93	2346.14
305.91	2346.01
305.9	2345.54
305.88	2345.08
305.86	2344.56
305.85	2344.15
305.83	2343.95
305.81	2343.83
305.8	2343.7
305.78	2343.58
305.77	2343.49
305.75	2343.4
305.73	2343.31
305.71	2343.24
305.7	2343.21
305.68	2343.25
305.66	2343.33
305.65	2343.36
305.63	2343.32
305.61	2343.3
305.6	2343.22
305.58	2343.13
305.56	2343
305.55	2342.86
305.53	2342.7
305.52	2342.57
305.5	2342.47
305.48	2342.37
305.46	2342.25
305.45	2342.16
305.43	2342.09
305.41	2342.01
305.4	2341.9
305.38	2341.75
305.36	2341.54
305.35	2341.3
305.33	2341.14
305.31	2340.99
305.3	2340.88
305.28	2340.79
305.27	2340.67
305.25	2340.57
305.23	2340.48
305.22	2340.4
305.2	2340.3
305.18	2340.19
305.17	2340.03
305.15	2339.93
305.13	2339.84
305.12	2339.76
305.1	2339.82
305.08	2339.74
305.07	2339.65
305.05	2339.54
305.03	2339.46
305.02	2339.36
305	2339.24
304.98	2339.1
304.97	2339.01
304.95	2338.9
304.93	2338.8
304.92	2338.71
304.9	2338.63
304.88	2338.54
304.87	2338.44
304.85	2338.32
304.83	2338.19
304.82	2338.06
304.8	2337.88
304.78	2337.6
304.77	2337.45
304.75	2337.31
304.73	2337.21
304.72	2337.11
304.7	2337.04
304.68	2336.96
304.66	2336.87
304.65	2336.79
304.63	2336.7
304.62	2336.61
304.6	2336.5
304.58	2336.4
304.57	2336.29
304.55	2336.2
304.53	2336.12
304.52	2336.05
304.5	2335.99
304.48	2335.92
304.47	2335.85
304.45	2335.79
304.43	2335.71
304.42	2335.6
304.4	2335.48
304.38	2335.37
304.37	2335.24
304.35	2335.11
304.33	2334.98
304.32	2334.82
304.3	2334.72
304.28	2334.62
304.27	2334.55
304.25	2334.51
304.23	2334.45
304.22	2334.38
304.2	2334.31
304.18	2334.23
304.17	2334.13
304.15	2334.02
304.13	2333.88
304.12	2333.75
304.1	2333.58
304.08	2333.47
304.07	2333.37
304.05	2333.27
304.03	2333.19
304.02	2333.13
304	2333.05
303.98	2332.96
303.97	2332.87
303.95	2332.79
303.93	2332.71
303.92	2332.61
303.9	2332.51
303.88	2332.4
303.87	2332.27
303.85	2332.18
303.83	2332.1
303.82	2332.01
303.8	2331.91
303.78	2331.81
303.77	2331.69
303.75	2331.56
303.73	2331.43
303.72	2331.31
303.7	2331.17
303.68	2331.07
303.67	2330.98
303.65	2330.89
303.63	2330.8
303.62	2330.75
303.6	2330.76
303.58	2330.73
303.57	2330.67
303.55	2330.62
303.53	2330.56
303.52	2330.54
303.5	2330.5
303.48	2330.43
303.47	2330.36
303.45	2330.27
303.43	2330.17
303.42	2330.08
303.4	2329.97
303.38	2329.87
303.37	2329.81
303.35	2329.72
303.33	2329.67
303.32	2329.77
303.3	2330.19
303.28	2330.4
303.27	2330.54
303.25	2330.54
303.23	2330.45
303.22	2330.37
303.2	2330.28
303.18	2330.18
303.17	2330.08
303.15	2329.98
303.13	2329.89
303.12	2329.82
303.1	2329.7
303.08	2329.67
303.07	2329.64
303.05	2329.72
303.03	2330.14
303.02	2330.8
303	2331.54
302.98	2332.48
302.97	2332.96
302.95	2333.07
302.93	2333.02
302.92	2332.96
302.9	2332.88
302.88	2332.82
302.87	2332.81
302.85	2332.78
302.83	2332.7
302.82	2332.61
302.8	2332.49
302.78	2332.4
302.77	2332.28
302.75	2332.18
302.74	2332.09
302.72	2331.99
302.7	2331.91
302.68	2331.82
302.67	2331.75
302.65	2331.64
302.63	2331.54
302.62	2331.41
302.6	2331.3
302.58	2331.2
302.57	2331.09
302.55	2330.99
302.53	2330.9
302.52	2330.82
302.5	2330.72
302.48	2330.62
302.47	2330.5
302.45	2330.39
302.43	2330.3
302.42	2330.2
302.4	2330.11
302.38	2329.97
302.37	2329.84
302.35	2329.71
302.33	2329.58
302.32	2329.43
302.3	2329.28
302.29	2329.13
302.27	2328.96
302.25	2328.8
302.23	2328.65
302.22	2328.51
302.2	2328.37
302.18	2328.26
302.17	2328.14
302.15	2328.05
302.13	2328.02
302.12	2328.1
302.1	2328.16
302.08	2328.1
302.07	2328.1
302.05	2328.05
302.03	2327.96
302.02	2327.86
302	2327.72
301.98	2327.57
301.97	2327.38
301.95	2327.2
301.93	2327.05
301.92	2326.94
301.9	2326.86
301.88	2326.81
301.87	2326.82
301.85	2326.8
301.83	2326.74
301.82	2326.67
301.8	2326.6
301.78	2326.5
301.77	2326.38
301.75	2326.23
301.73	2326.06
301.72	2325.89
301.7	2325.74
301.68	2325.61
301.67	2325.5
301.65	2325.4
301.63	2325.32
301.62	2325.25
301.6	2325.21
301.58	2325.17
301.57	2325.12
301.55	2325.04
301.53	2324.86
301.52	2324.57
301.5	2324.46
301.48	2324.36
301.47	2324.27
301.45	2324.18
301.43	2324.11
301.42	2324.02
301.4	2323.93
301.38	2323.84
301.37	2323.75
301.35	2323.65
301.33	2323.53
301.32	2323.41
301.3	2323.3
301.28	2323.18
301.27	2323.08
301.25	2323.05
301.23	2323.02
301.22	2322.98
301.2	2322.9
301.18	2322.82
301.17	2322.74
301.15	2322.62
301.13	2322.5
301.12	2322.38
301.1	2322.28
301.08	2322.16
301.07	2322.05
301.05	2321.94
301.03	2321.83
301.02	2321.73
301	2321.63
300.98	2321.53
300.97	2321.44
300.95	2321.35
300.93	2321.29
300.92	2321.29
300.9	2321.24
300.88	2321.19
300.87	2321.17
300.85	2321.07
300.83	2321.15
300.82	2321.12
300.8	2321.06
300.78	2320.98
300.77	2320.9
300.75	2320.81
300.73	2320.7
300.72	2320.57
300.7	2320.45
300.68	2320.29
300.67	2319.91
300.65	2319.55
300.63	2319.41
300.62	2319.26
300.6	2319.11
300.58	2318.92
300.57	2318.76
300.55	2318.6
300.53	2318.44
300.52	2318.29
300.5	2318.17
300.49	2318.03
300.47	2317.87
300.45	2317.75
300.44	2317.64
300.42	2317.57
300.4	2317.51
300.38	2317.52
300.37	2317.63
300.35	2317.72
300.33	2317.7
300.32	2317.65
300.3	2317.55
300.28	2317.46
300.27	2317.38
300.25	2317.27
300.24	2317.16
300.22	2317.03
300.2	2316.9
300.18	2316.69
300.17	2316.6
300.15	2316.49
300.14	2316.36
300.12	2316.02
300.1	2315.89
300.09	2315.83
300.07	2315.76
300.05	2315.71
300.03	2315.64
300.02	2315.58
300	2315.5
299.98	2315.42
299.97	2315.32
299.95	2315.21
299.93	2315.06
299.92	2314.99
299.9	2314.88
299.88	2314.84
299.87	2314.81
299.85	2314.8
299.84	2314.76
299.82	2314.67
299.8	2314.59
299.79	2314.5
299.77	2314.41
299.75	2314.3
299.73	2314.23
299.72	2314.11
299.7	2314.01
299.69	2313.9
299.67	2313.8
299.65	2313.72
299.64	2313.67
299.62	2313.68
299.6	2313.96
299.59	2314.99
299.57	2317.38
299.55	2320.97
299.54	2326.42
299.52	2335.81
299.5	2351.42
299.49	2369.07
299.47	2384.33
299.45	2400.75
299.44	2419.78
299.42	2444.08
299.4	2469.89
299.39	2496.61
299.37	2526.71
299.36	2559.52
299.34	2595.78
299.32	2638.32
299.31	2683.68
299.29	2731.87
299.28	2786.24
299.26	2844.28
299.25	2909.71
299.23	2980.27
299.22	3052.71
299.21	3132.03
299.19	3212.73
299.18	3297.52
299.16	3385.24
299.15	3476.1
299.14	3566.6
299.12	3659.22
299.11	3757.15
299.1	3857.04
299.08	3958.21
299.07	4064.76
299.06	4173.97
299.05	4285.65
299.04	4402.88
299.03	4528.05
299.02	4653.93
299	4784.42
298.99	4918.52
298.99	5060.11
298.97	5204.13
298.96	5349.89
298.96	5500.27
298.95	5652.32
298.94	5803.88
298.93	5957.83
298.92	6114.01
298.92	6269.11
298.91	6425.09
298.9	6578.46
298.89	6733.76
298.89	6888.72
298.88	7044.27
298.88	7197.98
298.87	7352.2
298.87	7507.61
298.86	7662.13
298.86	7816.04
298.85	7971.95
298.85	8128.1
298.84	8286.24
298.84	8446.35
298.83	8608.84
298.83	8777.16
298.83	8947.39
298.82	9123.75
298.82	9305.05
298.82	9489.61
298.82	9678.38
298.81	9870.4
298.81	10062.36
298.81	10259.22
298.81	10402.51
298.81	10545.8
298.8	10689.08
298.81	10832.37
298.8	10975.66
298.8	11118.95
298.8	11262.24
298.8	11405.52
298.8	11548.81
298.8	11692.1
298.8	11835.39
298.8	11978.67
298.81	12121.96
298.8	12265.25
298.81	12408.54
298.81	12551.82
298.81	12695.11
298.81	12838.4
298.81	12981.69
298.81	13124.97
298.81	13268.26
298.81	13411.55
298.81	13554.84
298.81	13698.12
298.81	13841.41
298.81	13984.7
298.81	14127.99
298.81	14271.27
298.81	14414.56
298.81	14557.85
298.81	14701.14
298.81	14844.42
298.81	14987.71
298.81	15131
298.81	15274.29
298.81	15417.57
298.81	15560.86
298.81	15704.15
298.81	15847.44
298.81	15990.72
298.81	16134.01
298.81	16277.3
298.81	16420.59
298.81	16563.87
298.81	16707.16
298.8	16850.45
298.81	16993.74
298.8	17137.02
298.8	17280.31
298.8	17423.6
298.8	17566.89
298.8	17710.17
298.8	17853.46
298.8	17996.75
298.79	18140.04
298.79	18283.32
298.79	18426.61
298.78	18569.9
298.78	18713.19
298.78	18856.47
298.78	18999.76
298.77	19143.05
298.77	19286.34
298.77	19429.62
298.77	19572.91
298.76	19716.2
298.76	19859.49
298.76	20002.77
298.75	20146.06
298.75	20289.35
298.75	20432.64
298.75	20575.92
298.75	20719.21
298.75	20862.5
298.75	21005.79
298.75	21149.07
298.75	21292.36
298.75	21435.65
298.75	21578.94
298.75	21722.22
298.75	21865.51
298.76	22008.8
298.76	22152.09
298.77	22295.37
298.77	22438.66
298.78	22581.95
298.79	22725.24
298.79	22868.52
298.8	23011.81
298.81	23155.1
298.82	23298.39
298.83	23441.67
298.84	23584.96
298.85	23728.25
298.86	23871.54
298.87	24014.82
298.88	24158.11
298.89	24301.4
298.9	24444.69
298.9	24587.97
298.91	24731.26
298.91	24874.55
298.92	25017.84
298.92	25161.12
298.92	25304.41
298.93	25447.7
298.93	25590.99
298.93	25734.27
298.93	25877.56
298.93	26020.85
298.93	26164.14
298.93	26307.42
298.93	26450.71
298.93	26594
298.93	26737.29
298.93	26880.57
298.93	27023.86
298.93	27167.15
298.93	27167.15
298.93	27187.2
298.93	27197.65
298.93	27207.01
298.92	27210.2
298.92	27215.41
298.92	27222.5
298.91	27236.6
298.91	27253.23
298.91	27276.1
298.9	27298.3
298.9	27320.96
298.89	27341.32
298.89	27359.09
298.88	27370.78
298.88	27372.75
298.87	27369.72
298.86	27358.66
298.86	27342.07
298.85	27318.44
298.85	27289.22
298.84	27253.97
298.83	27210.63
298.82	27157.41
298.81	27101.59
298.8	27041.03
298.79	26978.8
298.78	26915.48
298.77	26851.95
298.76	26787.78
298.75	26722.3
298.74	26653.37
298.73	26582.49
298.72	26509.94
298.7	26433.92
298.69	26360.22
298.68	26281.88
298.67	26201.69
298.65	26118.71
298.64	26036.98
298.62	25957.81
298.61	25879.27
298.59	25803.53
298.58	25726.44
298.56	25655.41
298.54	25590.32
298.53	25533.55
298.51	25475.41
298.49	25417.2
298.48	25357.48
298.46	25296.85
298.44	25238.02
298.42	25176.33
298.41	25113.52
298.39	25046.48
298.37	24977.76
298.35	24907
298.33	24833.48
298.31	24758.23
298.3	24681.81
298.28	24603.42
298.26	24523.95
298.24	24442.29
298.22	24360.62
298.2	24277.25
298.18	24191.86
298.16	24105.81
298.14	24020.82
298.12	23933.52
298.1	23847.17
298.08	23760.7
298.05	23672.87
298.03	23582.69
298.01	23490.67
297.99	23399.79
297.97	23304.56
297.95	23209.6
297.92	23117.52
297.9	23022.69
297.88	22927.76
297.86	22832.48
297.83	22737.78
297.81	22643.52
297.79	22546.96
297.76	22447.59
297.74	22349.89
297.72	22253.03
297.69	22156.87
297.67	22060.68
297.65	21962.63
297.62	21865.76
297.6	21769.37
297.57	21672.8
297.55	21573.51
297.52	21475.1
297.5	21373.36
297.48	21271.67
297.45	21171.88
297.43	21071.61
297.4	20969.95
297.38	20865.96
297.35	20762.65
297.32	20661.14
297.3	20558.82
297.27	20457.73
297.25	20355.36
297.22	20251.46
297.2	20147.41
297.17	20040.61
297.15	19934.21
297.12	19824.21
297.09	19712.48
297.07	19602.6
297.04	19489.44
297.01	19376.03
296.99	19264.08
296.96	19148.64
296.93	19031.59
296.91	18913.87
296.88	18792.74
296.85	18670.67
296.82	18545
296.8	18416.83
296.77	18286.12
296.74	18151.95
296.71	18015.81
296.69	17883.11
296.66	17749.26
296.63	17614.34
296.6	17479.65
296.57	17343.55
296.54	17204.62
296.51	17069.06
296.48	16932.34
296.46	16797.77
296.43	16661.46
296.4	16525.06
296.37	16393.72
296.34	16266.52
296.31	16137.46
296.28	16006.4
296.25	15872.02
296.22	15737.03
296.19	15605.86
296.16	15476.58
296.13	15348.72
296.1	15218.8
296.07	15091.66
296.03	14965.73
296	14840.61
295.97	14713.8
295.94	14590.64
295.91	14466.58
295.88	14345.55
295.85	14229.15
295.82	14114.32
295.79	13998.49
295.76	13880.23
295.73	13762.87
295.7	13646.56
295.67	13531.77
295.63	13418.42
295.6	13306.03
295.57	13192.79
295.54	13083.68
295.51	12974.28
295.48	12867.58
295.45	12759.18
295.42	12652.42
295.39	12544.34
295.36	12435.71
295.33	12329.37
295.3	12223.31
295.26	12113.27
295.23	12004.6
295.2	11896.44
295.17	11788.4
295.14	11681.74
295.11	11577.85
295.08	11475.05
295.05	11371.43
295.02	11266.96
294.99	11166.56
294.96	11065.34
294.93	10963
294.9	10862.58
294.87	10763.52
294.84	10665.62
294.8	10567.16
294.77	10472.75
294.74	10377.47
294.71	10280.11
294.68	10182.85
294.65	10086.2
294.62	9989.78
294.59	9890.08
294.56	9794.65
294.53	9697.1
294.5	9600.65
294.47	9503.59
294.44	9406.85
294.41	9313.72
294.38	9219.77
294.35	9125.37
294.32	9035.49
294.29	8944.34
294.26	8851.92
294.23	8763.99
294.2	8676.27
294.17	8590.55
294.14	8507.51
294.11	8424.44
294.08	8343.12
294.06	8261.5
294.03	8179.89
294	8098.93
293.97	8021.08
293.94	7942.78
293.91	7863.41
293.88	7788.59
293.85	7716.24
293.82	7642.3
293.79	7569.17
293.76	7501.73
293.74	7433.81
293.71	7364.81
293.68	7296
293.65	7227.32
293.62	7159.15
293.6	7088.98
293.57	7020.03
293.54	6952.6
293.51	6883.93
293.48	6815.5
293.45	6751.21
293.43	6690.02
293.4	6630.12
293.37	6569.52
293.34	6511.65
293.32	6455.7
293.29	6400.45
293.26	6343.34
293.24	6289.17
293.21	6236.01
293.18	6181.06
293.15	6126.19
293.13	6072.18
293.1	6017.27
293.08	5962.44
293.05	5910.6
293.02	5861.21
293	5812.95
292.97	5768.81
292.94	5734.24
292.92	5713.04
292.89	5708.63
292.87	5726.59
292.84	5774.67
292.82	5859.35
292.79	5976.41
292.77	6123.76
292.74	6294.95
292.72	6474.45
292.7	6645.75
292.68	6800.75
292.66	6926.35
292.64	7016.2
292.62	7064.18
292.61	7078.24
292.59	7062.21
292.57	7024.35
292.55	6967.75
292.53	6902.97
292.51	6829.67
292.49	6744.7
292.47	6656.95
292.45	6563.87
292.43	6467.89
292.41	6372.27
292.39	6276.87
292.37	6182.7
292.35	6088.74
292.33	5994.77
292.31	5902.2
292.28	5814.39
292.26	5725.02
292.24	5637.51
292.22	5551.14
292.2	5460.52
292.17	5370.46
292.15	5280.75
292.13	5190.98
292.1	5103.68
292.08	5018.67
292.06	4937.17
292.03	4861.14
292.01	4789.4
291.99	4720.93
291.96	4658.02
291.94	4595.88
291.91	4534.55
291.89	4476.88
291.87	4420.15
291.85	4370.73
291.82	4321.35
291.8	4274.62
291.77	4230.08
291.75	4189.67
291.73	4149.79
291.7	4110.69
291.68	4076.2
291.66	4041.59
291.63	4006.93
291.61	3973.22
291.59	3942.44
291.57	3910.18
291.54	3877.08
291.52	3847.41
291.5	3818.56
291.47	3790.75
291.45	3762.88
291.43	3736.47
291.41	3709.95
291.38	3687.18
291.36	3666.53
291.34	3646.85
291.32	3624.61
291.3	3602.59
291.27	3581.17
291.25	3558.46
291.23	3533.51
291.21	3509.2
291.19	3483.59
291.16	3456
291.14	3432.2
291.12	3408.23
291.1	3388.42
291.08	3370.54
291.06	3351.53
291.03	3333.35
291.01	3316.41
290.99	3296.99
290.97	3279.77
290.95	3260.52
290.93	3240.59
290.91	3223.03
290.89	3203.32
290.87	3183.47
290.84	3168.31
290.82	3150.11
290.8	3130.53
290.78	3111.17
290.76	3092.65
290.74	3076.56
290.72	3058.25
290.7	3042.77
290.68	3027.2
290.66	3013.87
290.64	2999.05
290.62	2990.22
290.6	2987.14
290.58	2990.45
290.56	3001.96
290.54	3031.14
290.52	3087.43
290.5	3170.86
290.48	3284.9
290.46	3416.92
290.44	3559.77
290.42	3697.73
290.41	3819.01
290.39	3909.69
290.38	3956.55
290.36	3951.37
290.35	3898.05
290.33	3806.96
290.31	3691.46
290.29	3566.73
290.28	3440.4
290.26	3321.14
290.24	3214.78
290.22	3123.09
290.2	3044.41
290.18	2979.17
290.16	2923.77
290.14	2877.17
290.12	2839.01
290.1	2805.48
290.08	2776.18
290.06	2749.17
290.04	2724.2
290.02	2704.4
290	2688.05
289.99	2671.74
289.97	2658.05
289.95	2644.19
289.93	2631.37
289.91	2620.37
289.89	2610.25
289.87	2601.22
289.85	2591.37
289.83	2581.45
289.81	2573.06
289.79	2568
289.77	2559.8
289.75	2551.97
289.73	2541
289.71	2528.37
289.69	2518.16
289.68	2505.84
289.66	2494.33
289.64	2480.47
289.62	2468.85
289.6	2454.97
289.58	2445.06
289.56	2431.95
289.54	2421.66
289.52	2410.73
289.51	2400.21
289.49	2391.77
289.47	2383.36
289.45	2375.14
289.43	2364.74
289.41	2357.21
289.39	2349
289.37	2340.81
289.36	2332.25
289.34	2322.53
289.32	2316.14
289.3	2311.19
289.28	2302.61
289.26	2295.13
289.24	2286.56
289.23	2279.21
289.21	2270.5
289.19	2263.33
289.17	2253.29
289.15	2245.04
289.13	2235.51
289.12	2229.99
289.1	2224.49
289.08	2216.5
289.06	2207.92
289.04	2198.81
289.02	2191.47
289.01	2184.76
288.99	2179.02
288.97	2170.79
288.95	2164.72
288.93	2160.19
288.91	2155.98
288.9	2152.71
288.88	2149.29
288.86	2144.44
288.84	2140.96
288.83	2136.67
288.81	2131.71
288.79	2127.53
288.77	2121.72
288.75	2115.85
288.73	2108.26
288.72	2100.49
288.7	2095.14
288.68	2090.37
288.66	2084.54
288.65	2080.89
288.63	2075.36
288.61	2069.31
288.59	2065.85
288.57	2061.5
288.56	2054.84
288.54	2045.9
288.52	2034.99
288.5	2029.63
288.48	2024.41
288.47	2019.35
288.45	2014.56
288.43	2010.32
288.42	2006.38
288.4	2004.38
288.38	2002.78
288.36	2000.09
288.34	1997.01
288.33	1992.14
288.31	1988.33
288.29	1984.43
288.27	1978.13
288.26	1972.82
288.24	1965.41
288.22	1960.33
288.2	1955.15
288.19	1950.18
288.17	1943.59
288.15	1940.64
288.13	1934.85
288.12	1930.51
288.1	1927.56
288.08	1924.37
288.06	1922.08
288.05	1918.92
288.03	1917.01
288.01	1915.6
287.99	1913.01
287.97	1911.38
287.96	1908.34
287.94	1903.7
287.92	1898.81
287.91	1893.19
287.89	1888.15
287.87	1884.01
287.85	1879.11
287.84	1873.3
287.82	1868.75
287.8	1867.48
287.78	1868.53
287.77	1874.56
287.75	1884.44
287.73	1900.02
287.72	1924.49
287.7	1962.14
287.68	2013.09
287.66	2072.56
287.65	2130.81
287.63	2179.6
287.61	2215.17
287.6	2234.59
287.58	2231.67
287.57	2208.12
287.55	2163.12
287.54	2106.68
287.52	2097.35
287.5	2065.16
287.49	1957.43
287.47	1927.13
287.45	1904.92
287.43	1887.67
287.42	1877.57
287.4	1866.83
287.38	1859.72
287.36	1851.56
287.35	1844.87
287.33	1841.36
287.31	1837.84
287.29	1834.93
287.28	1832.5
287.26	1829.68
287.24	1824.95
287.23	1822.02
287.21	1818.06
287.19	1812.95
287.17	1809.2
287.16	1804.97
287.14	1801.24
287.12	1796.33
287.11	1790.45
287.09	1788.42
287.07	1786.09
287.05	1782.21
287.03	1780.51
287.02	1779.34
287	1777.34
286.98	1777.67
286.97	1780.92
286.95	1782.17
286.93	1781.74
286.92	1782.72
286.9	1784.82
286.88	1790.33
286.86	1794.09
286.85	1802.34
286.83	1811.78
286.81	1816.49
286.8	1820.89
286.78	1821.81
286.76	1818.14
286.75	1807.31
286.73	1802.52
286.71	1786.43
286.69	1769.39
286.68	1758.86
286.66	1752.23
286.64	1749.94
286.63	1746.17
286.61	1743.04
286.59	1741.59
286.58	1738.12
286.56	1734.31
286.54	1732.59
286.52	1727.91
286.51	1726.86
286.49	1722.82
286.47	1721.74
286.45	1720.91
286.44	1718.69
286.42	1719.02
286.4	1720.06
286.39	1718.02
286.37	1714.19
286.35	1714.34
286.34	1712.67
286.32	1712.25
286.3	1712.59
286.28	1713.65
286.27	1714.29
286.25	1714.74
286.23	1716.04
286.22	1717.12
286.2	1717.74
286.18	1717.77
286.17	1717.31
286.15	1715.27
286.13	1711.44
286.12	1706.93
286.1	1700.52
286.08	1694.09
286.06	1688.74
286.05	1686.55
286.03	1684.66
286.01	1683.79
286	1683.61
285.98	1684.29
285.96	1684.45
285.95	1683.41
285.93	1681.44
285.91	1678.47
285.89	1675.65
285.88	1673.5
285.86	1672.03
285.84	1670.56
285.83	1669.02
285.81	1668.7
285.79	1669.39
285.78	1670.13
285.76	1670.59
285.74	1670.6
285.73	1670
285.71	1668.99
285.69	1668.24
285.68	1667.94
285.66	1667.68
285.64	1667.38
285.62	1666.98
285.61	1666.68
285.59	1666.68
285.57	1666.69
285.56	1666.7
285.54	1666.59
285.52	1666.23
285.51	1666.06
285.49	1666.04
285.47	1667.7
285.46	1669.39
285.44	1673.43
285.42	1683.84
285.4	1709.39
285.39	1740.81
285.37	1757.87
285.36	1769.77
285.34	1774.36
285.32	1773.27
285.31	1765.16
285.29	1754.59
285.28	1749.49
285.26	1748.98
285.24	1747.95
285.22	1740.12
285.21	1722.68
285.19	1704.03
285.18	1689.65
285.16	1679.52
285.14	1672.57
285.12	1667.43
285.11	1663.58
285.09	1659.38
285.07	1656.29
285.05	1654.18
285.04	1653.41
285.02	1651.65
285.01	1651.21
284.99	1650
284.97	1649.11
284.96	1647.96
284.94	1646.81
284.92	1644.87
284.9	1643.06
284.89	1641.65
284.87	1640.73
284.85	1640.35
284.84	1639.37
284.82	1638.2
284.8	1636.8
284.79	1635.2
284.77	1634.72
284.75	1634.95
284.74	1635.34
284.72	1635.89
284.7	1636.33
284.69	1636.66
284.67	1637.02
284.65	1637.33
284.64	1637.63
284.62	1637.91
284.6	1637.99
284.58	1637.77
284.57	1637.57
284.55	1637.21
284.53	1636.91
284.52	1636.05
284.5	1634.9
284.48	1633.5
284.47	1632.31
284.45	1631.4
284.43	1630.47
284.42	1629.86
284.4	1629.3
284.38	1628.65
284.37	1628.19
284.35	1627.65
284.33	1627.21
284.31	1626.81
284.3	1626.53
284.28	1626.28
284.27	1626.06
284.25	1625.72
284.23	1625.34
284.22	1624.58
284.2	1623.47
284.18	1622.37
284.16	1620.95
284.15	1619.43
284.13	1618.01
284.12	1616.84
284.1	1615.75
284.08	1614.92
284.06	1614.23
284.05	1613.7
284.03	1613.41
284.01	1613.38
284	1613.4
283.98	1613.8
283.96	1614.22
283.95	1614.64
283.93	1615.05
283.91	1615.41
283.9	1615.72
283.88	1615.87
283.86	1616.03
283.85	1615.96
283.83	1615.89
283.82	1615.48
283.8	1614.95
283.78	1613.97
283.76	1612.5
283.75	1610.43
283.73	1608.21
283.71	1606.48
283.7	1605.07
283.68	1604.37
283.66	1604.02
283.65	1603.89
283.63	1603.88
283.61	1604.1
283.6	1604.3
283.58	1604.48
283.56	1604.47
283.55	1604.46
283.53	1604.44
283.51	1604.18
283.5	1603.92
283.48	1603.47
283.46	1603.06
283.45	1602.73
283.43	1602.34
283.41	1601.7
283.39	1600.99
283.38	1600.13
283.36	1599.1
283.35	1598.2
283.33	1597.14
283.31	1596.45
283.3	1596.08
283.28	1595.99
283.26	1595.89
283.25	1595.94
283.23	1595.99
283.21	1596.03
283.19	1596.09
283.18	1596.13
283.16	1596.16
283.14	1596.18
283.13	1596.22
283.11	1596.25
283.1	1596.28
283.08	1596.29
283.06	1596.31
283.05	1596.33
283.03	1596.31
283.01	1596.29
283	1596.06
282.98	1595.6
282.96	1595.06
282.94	1594.53
282.93	1593.61
282.91	1592.88
282.89	1592.42
282.88	1592.31
282.86	1592.23
282.84	1592.22
282.83	1592.25
282.81	1592.28
282.79	1592.28
282.78	1592.27
282.76	1592.24
282.74	1592.21
282.73	1592.19
282.71	1592.19
282.69	1592.21
282.68	1592.27
282.66	1592.33
282.64	1592.36
282.63	1592.37
282.61	1592.35
282.59	1592.29
282.58	1592.07
282.56	1591.47
282.54	1590.65
282.53	1589.96
282.51	1589.36
282.49	1588.96
282.48	1588.75
282.46	1588.64
282.44	1588.61
282.43	1588.61
282.41	1588.74
282.39	1588.73
282.38	1588.72
282.36	1588.67
282.34	1588.6
282.33	1588.55
282.31	1588.47
282.29	1588.43
282.28	1588.4
282.26	1588.35
282.24	1588.33
282.23	1588.29
282.21	1588.22
282.19	1588.14
282.18	1588.07
282.16	1587.98
282.14	1587.91
282.13	1587.86
282.11	1587.82
282.09	1587.79
282.08	1587.78
282.06	1587.76
282.04	1587.75
282.03	1587.77
282.01	1587.89
281.99	1588.1
281.98	1588.49
281.96	1589.27
281.94	1590.04
281.93	1590.69
281.91	1591.94
281.89	1593.1
281.88	1593.56
281.86	1593.77
281.84	1593.84
281.83	1593.91
281.81	1593.92
281.79	1593.96
281.78	1594.11
281.76	1594.3
281.75	1594.36
281.73	1594.35
281.71	1594.32
281.69	1594.29
281.68	1594.26
281.66	1594.22
281.64	1594.16
281.63	1594.09
281.61	1594.03
281.59	1593.96
281.58	1593.9
281.56	1593.84
281.54	1593.79
281.53	1593.7
281.51	1593.63
281.49	1593.56
281.48	1593.46
281.46	1593.32
281.44	1593.24
281.43	1593.19
281.41	1593.19
281.39	1593.16
281.38	1593.17
281.36	1593.17
281.34	1593.13
281.33	1593.06
281.31	1592.97
281.29	1592.86
281.28	1592.77
281.26	1592.68
281.24	1592.59
281.23	1592.52
281.21	1592.45
281.19	1592.36
281.18	1592.21
281.16	1592.01
281.15	1591.73
281.13	1591.56
281.11	1591.39
281.09	1591.31
281.08	1591.25
281.06	1591.21
281.05	1591.2
281.03	1591.26
281.01	1591.28
280.99	1591.3
280.98	1591.29
280.96	1591.25
280.94	1591.18
280.93	1591.08
280.91	1590.95
280.89	1590.78
280.88	1590.7
280.86	1590.65
280.84	1590.65
280.83	1590.74
280.81	1590.83
280.79	1590.92
280.78	1591.11
280.76	1591.31
280.74	1591.33
280.73	1591.28
280.71	1591.19
280.69	1591.1
280.68	1590.99
280.66	1590.89
280.64	1590.81
280.63	1590.76
280.61	1590.75
280.59	1590.8
280.58	1590.9
280.56	1591.01
280.54	1591.12
280.53	1591.21
280.51	1591.23
280.49	1591.21
280.48	1591.19
280.46	1591.16
280.44	1591.13
280.43	1591.1
280.41	1591.07
280.39	1591.04
280.38	1591.01
280.36	1590.97
280.34	1590.94
280.33	1591.03
280.31	1591.15
280.29	1591.14
280.28	1591.11
280.26	1591.07
280.24	1591.03
280.23	1590.98
280.21	1590.92
280.2	1590.86
280.18	1590.8
280.16	1590.69
280.14	1590.62
280.13	1590.56
280.11	1590.48
280.09	1590.42
280.08	1590.34
280.06	1590.29
280.04	1590.23
280.03	1590.18
280.01	1590.11
279.99	1590.04
279.98	1589.96
279.96	1589.88
279.95	1589.81
279.93	1589.75
279.91	1589.67
279.89	1589.55
279.88	1589.29
279.86	1588.77
279.84	1588.07
279.83	1587.16
279.81	1586.31
279.8	1585.19
279.78	1583.73
279.76	1582.01
279.74	1580.14
279.73	1578.54
279.71	1577.14
279.69	1576.01
279.68	1575.22
279.66	1574.69
279.64	1574.53
279.63	1574.5
279.61	1574.41
279.6	1574.35
279.58	1574.28
279.56	1574.18
279.54	1574.08
279.53	1574.01
279.51	1573.88
279.49	1573.78
279.48	1573.62
279.46	1573.51
279.44	1573.42
279.43	1573.36
279.41	1573.33
279.39	1573.3
279.38	1573.32
279.36	1573.32
279.34	1573.4
279.33	1573.44
279.31	1573.47
279.29	1573.48
279.28	1573.48
279.26	1573.48
279.24	1573.46
279.23	1573.47
279.21	1573.45
279.19	1573.42
279.18	1573.25
279.16	1572.97
279.14	1572.54
279.13	1571.96
279.11	1571.59
279.09	1571.21
279.08	1570.75
279.06	1570.61
279.04	1570.54
279.03	1570.49
279.01	1570.45
278.99	1570.4
278.98	1570.35
278.96	1570.27
278.94	1570.11
278.93	1569.95
278.91	1569.73
278.89	1569.29
278.88	1568.74
278.86	1567.83
278.84	1566.89
278.83	1565.94
278.81	1565.01
278.79	1564.39
278.78	1563.55
278.76	1562.99
278.74	1562.69
278.73	1562.61
278.71	1562.44
278.69	1562.31
278.68	1562.23
278.66	1562.1
278.64	1562.03
278.63	1561.96
278.61	1561.89
278.59	1561.82
278.58	1561.79
278.56	1561.8
278.54	1561.78
278.53	1561.75
278.51	1561.68
278.49	1561.62
278.48	1561.57
278.46	1561.51
278.44	1561.47
278.43	1561.45
278.41	1561.43
278.39	1561.44
278.38	1561.42
278.36	1561.39
278.34	1561.35
278.33	1561.31
278.31	1561.28
278.29	1561.25
278.28	1561.2
278.26	1561.13
278.24	1561.05
278.23	1560.91
278.21	1560.76
278.19	1560.53
278.18	1560.3
278.16	1560.03
278.14	1559.76
278.13	1559.58
278.11	1559.48
278.09	1559.38
278.08	1559.17
278.06	1558.81
278.04	1558.39
278.03	1557.99
278.01	1557.69
277.99	1557.24
277.98	1556.74
277.96	1556.53
277.94	1556.39
277.93	1556.27
277.91	1556.11
277.89	1555.96
277.88	1555.86
277.86	1555.77
277.84	1555.56
277.82	1555.22
277.81	1554.32
277.79	1553.24
277.77	1552.39
277.76	1551.69
277.74	1551.38
277.73	1551.27
277.71	1551.09
277.69	1551.02
277.68	1550.98
277.66	1550.93
277.64	1550.91
277.62	1550.87
277.61	1550.84
277.59	1550.8
277.57	1550.73
277.56	1550.67
277.54	1550.59
277.53	1550.41
277.51	1550.13
277.49	1549.74
277.48	1549.4
277.46	1549.25
277.44	1549.02
277.43	1548.93
277.41	1548.84
277.39	1548.77
277.38	1548.7
277.36	1548.62
277.34	1548.53
277.32	1548.42
277.31	1548.21
277.29	1547.7
277.27	1547.13
277.26	1545.79
277.24	1544.1
277.22	1542.53
277.21	1541.48
277.19	1540.78
277.17	1540.63
277.16	1540.47
277.14	1540.41
277.12	1540.36
277.11	1540.31
277.09	1540.28
277.07	1540.23
277.06	1540.19
277.04	1540.16
277.02	1540.12
277.01	1540.11
276.99	1540.11
276.97	1540.07
276.96	1539.99
276.94	1539.93
276.92	1539.83
276.91	1539.59
276.89	1539.31
276.87	1539.04
276.86	1538.82
276.84	1538.67
276.82	1538.56
276.81	1538.48
276.79	1538.45
276.77	1538.45
276.76	1538.67
276.74	1538.74
276.72	1538.73
276.71	1538.69
276.69	1538.64
276.68	1538.57
276.66	1538.48
276.64	1538.41
276.62	1538.33
276.61	1538.24
276.59	1538.02
276.57	1537.86
276.56	1537.64
276.54	1537.47
276.52	1537.31
276.51	1537.18
276.49	1537.01
276.47	1536.83
276.46	1536.68
276.44	1536.57
276.42	1536.44
276.41	1536.28
276.39	1536.03
276.37	1535.73
276.36	1535.48
276.34	1535.21
276.32	1535.02
276.31	1534.88
276.29	1534.74
276.27	1534.63
276.26	1534.55
276.24	1534.47
276.22	1534.38
276.21	1534.31
276.19	1534.25
276.17	1534.18
276.16	1534.09
276.14	1534
276.13	1533.92
276.11	1533.84
276.09	1533.77
276.07	1533.71
276.06	1533.68
276.04	1533.61
276.02	1533.53
276.01	1533.43
275.99	1533.35
275.97	1533.24
275.96	1533.13
275.94	1532.93
275.92	1532.8
275.91	1532.69
275.89	1532.58
275.87	1532.48
275.86	1532.4
275.84	1532.3
275.82	1532.2
275.81	1532.09
275.79	1531.9
275.77	1531.71
275.76	1531.53
275.74	1531.35
275.72	1531.17
275.71	1530.96
275.69	1530.85
275.67	1530.76
275.66	1530.67
275.64	1530.58
275.62	1530.51
275.61	1530.42
275.59	1530.31
275.57	1530.18
275.56	1530.04
275.54	1529.95
275.52	1529.86
275.51	1529.79
275.49	1529.73
275.47	1529.66
275.46	1529.58
275.44	1529.49
275.42	1529.43
275.41	1529.3
275.39	1529.13
275.37	1528.73
275.36	1528.47
275.34	1528.4
275.32	1528.45
275.31	1528.49
275.29	1528.41
275.27	1528.32
275.26	1528.19
275.24	1528.07
275.22	1527.93
275.21	1527.81
275.19	1527.66
275.17	1527.56
275.16	1527.45
275.14	1527.35
275.12	1527.23
275.11	1527.11
275.09	1527.01
275.07	1526.9
275.05	1526.73
275.04	1526.41
275.02	1526.3
275.01	1526.16
274.99	1526.03
274.97	1525.91
274.96	1525.73
274.94	1525.5
274.92	1525.28
274.91	1525.12
274.89	1525.01
274.87	1524.88
274.86	1524.76
274.84	1524.65
274.82	1524.56
274.81	1524.47
274.79	1524.4
274.77	1524.32
274.76	1524.26
274.74	1524.21
274.72	1524.12
274.71	1524.05
274.69	1523.93
274.67	1523.81
274.66	1523.7
274.64	1523.55
274.62	1523.44
274.61	1523.32
274.59	1523.18
274.57	1523.04
274.56	1522.9
274.54	1522.75
274.52	1522.55
274.51	1522.43
274.49	1522.32
274.47	1522.2
274.46	1522.08
274.44	1522.02
274.42	1522.02
274.4	1521.98
274.39	1521.91
274.37	1521.81
274.36	1521.64
274.34	1521.49
274.32	1521.35
274.31	1521.22
274.29	1521.08
274.27	1520.95
274.26	1520.81
274.24	1520.68
274.22	1520.57
274.21	1520.51
274.19	1520.42
274.17	1520.28
274.16	1520.15
274.14	1520.02
274.12	1519.88
274.1	1519.76
274.09	1519.62
274.07	1519.48
274.05	1519.33
274.04	1519.26
274.02	1519.23
274	1519.23
273.99	1519.23
273.97	1519.11
273.96	1518.99
273.94	1518.86
273.92	1518.72
273.91	1518.59
273.89	1518.44
273.87	1518.29
273.86	1518.12
273.84	1517.97
273.82	1517.83
273.8	1517.68
273.79	1517.53
273.77	1517.37
273.76	1517.18
273.74	1516.96
273.72	1516.81
273.71	1516.68
273.69	1516.57
273.67	1516.47
273.66	1516.37
273.64	1516.26
273.62	1516.15
273.61	1516.02
273.59	1515.89
273.57	1515.75
273.55	1515.61
273.54	1515.48
273.52	1515.35
273.51	1515.21
273.49	1515.12
273.47	1515.02
273.45	1514.9
273.44	1514.78
273.42	1514.65
273.41	1514.44
273.39	1514.19
273.37	1513.85
273.36	1513.57
273.34	1513.42
273.32	1513.3
273.31	1513.21
273.29	1513.11
273.27	1513.09
273.26	1513.12
273.24	1513.28
273.22	1513.27
273.21	1513.2
273.19	1513.09
273.17	1512.95
273.16	1512.72
273.14	1512.41
273.12	1512.13
273.11	1511.92
273.09	1511.69
273.07	1511.55
273.05	1511.44
273.04	1511.38
273.02	1511.29
273.01	1511.21
272.99	1511.11
272.97	1511.03
272.96	1510.94
272.94	1510.85
272.92	1510.73
272.91	1510.6
272.89	1510.45
272.87	1510.24
272.86	1510.05
272.84	1509.71
272.82	1509.47
272.81	1509.1
272.79	1508.95
272.77	1508.82
272.76	1508.7
272.74	1508.61
272.72	1508.52
272.71	1508.47
272.69	1508.44
272.67	1508.61
272.66	1508.64
272.64	1508.6
272.62	1508.51
272.6	1508.46
272.59	1508.42
272.57	1508.31
272.55	1508.07
272.54	1507.84
272.52	1507.7
272.51	1507.56
272.49	1507.42
272.47	1507.29
272.46	1507.15
272.44	1507.02
272.42	1506.88
272.41	1506.76
272.39	1506.61
272.37	1506.45
272.36	1506.25
272.34	1506.12
272.32	1505.98
272.31	1505.87
272.29	1505.79
272.27	1505.71
272.26	1505.63
272.24	1505.56
272.22	1505.49
272.21	1505.4
272.19	1505.29
272.17	1505.16
272.15	1505.03
272.14	1504.88
272.12	1504.73
272.11	1504.59
272.09	1504.46
272.07	1504.31
272.05	1504.18
272.04	1504.06
272.02	1503.95
272.01	1503.84
271.99	1503.73
271.97	1503.63
271.96	1503.57
271.94	1503.73
271.92	1504.27
271.91	1504.33
271.89	1504.33
271.87	1504.36
271.86	1504.33
271.84	1504.27
271.82	1504.16
271.8	1504.06
271.79	1503.94
271.77	1503.82
271.76	1503.7
271.74	1503.58
271.72	1503.46
271.71	1503.33
271.69	1503.19
271.67	1502.98
271.65	1502.79
271.64	1502.61
271.62	1502.43
271.61	1502.26
271.59	1502.1
271.57	1501.94
271.56	1501.81
271.54	1501.66
271.52	1501.61
271.51	1501.64
271.49	1501.67
271.47	1501.7
271.46	1501.69
271.44	1501.63
271.42	1501.53
271.4	1501.39
271.39	1501.23
271.37	1501.05
271.36	1500.77
271.34	1500.62
271.32	1500.49
271.31	1500.38
271.29	1500.3
271.27	1500.21
271.26	1500.15
271.24	1500.1
271.22	1500.01
271.21	1499.89
271.19	1499.76
271.17	1499.61
271.16	1499.46
271.14	1499.29
271.12	1499.11
271.11	1498.89
271.09	1498.63
271.07	1498.52
271.06	1498.59
271.04	1498.6
271.02	1498.54
271.01	1498.49
270.99	1498.41
270.97	1498.32
270.96	1498.24
270.94	1498.14
270.92	1498.06
270.91	1497.98
270.89	1497.87
270.87	1497.78
270.86	1497.67
270.84	1497.56
270.82	1497.42
270.81	1497.28
270.79	1497.13
270.77	1496.98
270.76	1496.83
270.74	1496.69
270.72	1496.57
270.71	1496.46
270.69	1496.34
270.67	1496.22
270.65	1496.11
270.64	1496
270.62	1495.88
270.6	1495.77
270.59	1495.65
270.57	1495.55
270.56	1495.45
270.54	1495.36
270.52	1495.27
270.51	1495.16
270.49	1495.03
270.47	1494.92
270.46	1494.81
270.44	1494.7
270.42	1494.61
270.41	1494.51
270.39	1494.39
270.37	1494.3
270.36	1494.21
270.34	1494.11
270.32	1494.01
270.3	1493.9
270.29	1493.8
270.27	1493.67
270.26	1493.52
270.24	1493.32
270.22	1493.18
270.21	1493.06
270.19	1492.94
270.17	1492.83
270.16	1492.73
270.14	1492.65
270.12	1492.57
270.11	1492.5
270.09	1492.43
270.07	1492.35
270.05	1492.27
270.04	1492.18
270.02	1492.1
270.01	1491.98
269.99	1491.88
269.97	1491.71
269.96	1491.44
269.94	1491.18
269.92	1490.95
269.91	1490.78
269.89	1490.65
269.87	1490.53
269.86	1490.43
269.84	1490.35
269.82	1490.27
269.81	1490.18
269.79	1490.08
269.77	1489.97
269.75	1489.86
269.74	1489.72
269.72	1489.49
269.71	1489.26
269.69	1489.14
269.67	1489.03
269.66	1488.92
269.64	1488.84
269.62	1488.78
269.61	1488.71
269.59	1488.64
269.57	1488.56
269.56	1488.46
269.54	1488.35
269.52	1488.23
269.51	1488.1
269.49	1487.87
269.47	1487.65
269.46	1487.52
269.44	1487.39
269.42	1487.28
269.41	1487.19
269.39	1487.1
269.37	1487.01
269.36	1486.91
269.34	1486.79
269.32	1486.68
269.31	1486.57
269.29	1486.47
269.27	1486.37
269.26	1486.27
269.24	1486.19
269.22	1486.16
269.21	1486.18
269.19	1486.22
269.17	1486.22
269.16	1486.15
269.14	1486.09
269.12	1485.99
269.11	1485.9
269.09	1485.8
269.07	1485.66
269.06	1485.53
269.04	1485.4
269.02	1485.3
269.01	1485.17
268.99	1485.05
268.97	1484.95
268.96	1484.87
268.94	1484.77
268.92	1484.67
268.91	1484.59
268.89	1484.49
268.87	1484.39
268.86	1484.29
268.84	1484.22
268.82	1484.13
268.81	1484.06
268.79	1484
268.77	1483.94
268.76	1483.87
268.74	1483.8
268.72	1483.74
268.71	1483.67
268.69	1483.59
268.67	1483.51
268.66	1483.41
268.64	1483.3
268.62	1483.22
268.6	1483.06
268.59	1482.89
268.57	1482.7
268.56	1482.57
268.54	1482.46
268.52	1482.38
268.51	1482.29
268.49	1482.19
268.47	1482.12
268.46	1482.07
268.44	1482.06
268.42	1482
268.41	1481.91
268.39	1481.79
268.37	1481.66
268.36	1481.53
268.34	1481.41
268.32	1481.31
268.31	1481.23
268.29	1481.15
268.27	1481.07
268.26	1481
268.24	1480.91
268.22	1480.82
268.21	1480.7
268.19	1480.57
268.17	1480.42
268.16	1480.27
268.14	1480.13
268.12	1480.02
268.11	1479.92
268.09	1479.81
268.07	1479.73
268.05	1479.65
268.04	1479.61
268.02	1479.6
268.01	1479.6
267.99	1479.58
267.97	1479.5
267.96	1479.43
267.94	1479.36
267.92	1479.27
267.91	1479.18
267.89	1479.09
267.87	1478.98
267.86	1478.88
267.84	1478.76
267.82	1478.63
267.81	1478.5
267.79	1478.28
267.77	1477.82
267.76	1477.48
267.74	1477.34
267.72	1477.23
267.71	1477.11
267.69	1477.04
267.67	1476.95
267.66	1476.87
267.64	1476.78
267.62	1476.7
267.61	1476.63
267.59	1476.54
267.57	1476.46
267.56	1476.38
267.54	1476.3
267.52	1476.23
267.51	1476.17
267.49	1476.12
267.47	1476.03
267.46	1475.97
267.44	1475.88
267.42	1475.79
267.41	1475.67
267.39	1475.56
267.37	1475.42
267.36	1475.31
267.34	1475.21
267.32	1475.12
267.31	1475.05
267.29	1474.98
267.27	1475.17
267.26	1475.14
267.24	1475.15
267.22	1475.1
267.21	1475.05
267.19	1474.99
267.17	1474.9
267.16	1474.81
267.14	1474.7
267.12	1474.58
267.11	1474.47
267.09	1474.36
267.07	1474.25
267.06	1474.14
267.04	1474.03
267.02	1473.91
267.01	1473.8
266.99	1473.69
266.97	1473.46
266.96	1473.28
266.94	1473.07
266.92	1473.04
266.91	1473.21
266.89	1473.21
266.87	1473.2
266.86	1473.13
266.84	1473.09
266.82	1473.02
266.8	1472.95
266.79	1472.88
266.77	1472.8
266.76	1472.71
266.74	1472.61
266.72	1472.49
266.7	1472.36
266.69	1472.24
266.67	1472.09
266.65	1471.98
266.64	1471.88
266.62	1471.78
266.61	1471.71
266.59	1471.68
266.57	1471.63
266.55	1471.62
266.54	1471.55
266.52	1471.47
266.51	1471.38
266.49	1471.28
266.47	1471.11
266.46	1471
266.44	1470.89
266.42	1470.79
266.41	1470.69
266.39	1470.6
266.37	1470.54
266.36	1470.47
266.34	1470.41
266.32	1470.36
266.3	1470.29
266.29	1470.22
266.27	1470.13
266.26	1470.03
266.24	1469.91
266.22	1469.82
266.21	1469.73
266.19	1469.62
266.17	1469.5
266.16	1469.37
266.14	1469.22
266.12	1469.06
266.11	1468.91
266.09	1468.76
266.07	1468.63
266.06	1468.53
266.04	1468.46
266.02	1468.54
266.01	1468.56
265.99	1468.54
265.97	1468.5
265.96	1468.42
265.94	1468.33
265.92	1468.23
265.9	1468.13
265.89	1468.03
265.87	1467.92
265.86	1467.85
265.84	1467.76
265.82	1467.61
265.81	1467.31
265.79	1467.07
265.77	1466.94
265.76	1466.81
265.74	1466.71
265.72	1466.63
265.71	1466.55
265.69	1466.48
265.67	1466.44
265.66	1466.4
265.64	1466.35
265.62	1466.26
265.61	1466.17
265.59	1466.09
265.57	1466
265.56	1465.91
265.54	1465.81
265.52	1465.69
265.51	1465.59
265.49	1465.49
265.47	1465.37
265.46	1465.24
265.44	1465.11
265.42	1465
265.41	1464.9
265.39	1464.8
265.37	1464.72
265.36	1464.65
265.34	1464.57
265.32	1464.5
265.31	1464.45
265.29	1464.38
265.27	1464.29
265.26	1464.22
265.24	1464.12
265.22	1464.01
265.21	1463.92
265.19	1463.84
265.17	1463.75
265.16	1463.67
265.14	1463.59
265.12	1463.52
265.1	1463.49
265.09	1463.5
265.07	1463.48
265.05	1463.39
265.04	1463.32
265.02	1463.24
265	1463.14
264.99	1463.05
264.97	1462.95
264.96	1462.83
264.94	1462.71
264.92	1462.6
264.91	1462.51
264.89	1462.42
264.87	1462.34
264.86	1462.28
264.84	1462.25
264.82	1462.2
264.8	1462.12
264.79	1462.04
264.77	1461.99
264.75	1461.91
264.74	1461.8
264.72	1461.7
264.71	1461.59
264.69	1461.48
264.67	1461.37
264.65	1461.27
264.64	1461.17
264.62	1461.07
264.6	1460.97
264.59	1460.89
264.57	1460.81
264.56	1460.73
264.54	1460.65
264.52	1460.57
264.5	1460.48
264.49	1460.4
264.47	1460.32
264.46	1460.24
264.44	1460.15
264.42	1460.04
264.41	1459.94
264.39	1459.85
264.37	1459.75
264.36	1459.65
264.34	1459.55
264.32	1459.44
264.3	1459.35
264.29	1459.27
264.27	1459.21
264.25	1459.15
264.24	1459.06
264.22	1458.97
264.2	1458.88
264.19	1458.7
264.17	1458.55
264.15	1458.43
264.14	1458.31
264.12	1458.18
264.11	1458.08
264.09	1457.99
264.07	1457.93
264.06	1457.86
264.04	1457.8
264.02	1457.72
264	1457.62
263.99	1457.51
263.97	1457.41
263.95	1457.32
263.94	1457.23
263.92	1457.13
263.9	1457.02
263.89	1456.95
263.87	1456.83
263.86	1456.71
263.84	1456.58
263.82	1456.46
263.81	1456.32
263.79	1456.2
263.77	1456.1
263.76	1456.04
263.74	1455.99
263.72	1455.95
263.7	1455.96
263.69	1455.9
263.67	1455.85
263.65	1455.79
263.64	1455.7
263.62	1455.61
263.6	1455.5
263.59	1455.39
263.57	1455.3
263.55	1455.18
263.54	1455.07
263.52	1454.96
263.5	1454.9
263.49	1454.9
263.47	1454.85
263.45	1454.69
263.44	1454.59
263.42	1454.49
263.4	1454.4
263.39	1454.3
263.37	1454.2
263.36	1454.1
263.34	1454.01
263.32	1453.93
263.3	1453.85
263.29	1453.79
263.27	1453.82
263.25	1453.74
263.24	1453.62
263.22	1453.52
263.21	1453.38
263.19	1453.26
263.17	1453.14
263.15	1453.03
263.14	1452.92
263.12	1452.82
263.11	1452.73
263.09	1452.65
263.07	1452.58
263.06	1452.52
263.04	1452.45
263.02	1452.36
263	1452.27
262.99	1452.16
262.97	1452.08
262.95	1452.02
262.94	1451.87
262.92	1451.75
262.9	1451.67
262.89	1451.56
262.87	1451.46
262.86	1451.37
262.84	1451.28
262.82	1451.2
262.81	1451.12
262.79	1451.03
262.77	1450.94
262.75	1450.84
262.74	1450.74
262.72	1450.64
262.7	1450.53
262.69	1450.4
262.67	1450.25
262.65	1450.12
262.64	1450.02
262.62	1449.91
262.61	1449.83
262.59	1449.78
262.57	1449.94
262.55	1449.95
262.54	1449.96
262.52	1449.88
262.5	1449.8
262.49	1449.72
262.47	1449.64
262.45	1449.56
262.44	1449.45
262.42	1449.31
262.4	1449.19
262.39	1449.06
262.37	1448.95
262.36	1448.83
262.34	1448.7
262.32	1448.52
262.31	1448.37
262.29	1448.23
262.27	1448.15
262.26	1448.08
262.24	1447.98
262.22	1447.89
262.21	1447.81
262.19	1447.73
262.17	1447.65
262.15	1447.56
262.14	1447.47
262.12	1447.39
262.1	1447.29
262.09	1447.23
262.07	1447.14
262.05	1447.07
262.04	1446.99
262.02	1446.92
262	1446.85
261.99	1446.77
261.97	1446.7
261.95	1446.61
261.94	1446.5
261.92	1446.39
261.9	1446.3
261.89	1446.2
261.87	1446.1
261.85	1445.99
261.84	1445.91
261.82	1445.83
261.81	1445.78
261.79	1445.69
261.77	1445.6
261.75	1445.49
261.74	1445.37
261.72	1445.24
261.7	1445.12
261.69	1444.99
261.67	1444.81
261.66	1444.68
261.64	1444.58
261.62	1444.5
261.6	1444.41
261.59	1444.35
261.57	1444.3
261.55	1444.38
261.54	1444.54
261.52	1444.62
261.5	1444.61
261.49	1444.56
261.47	1444.48
261.45	1444.38
261.44	1444.26
261.42	1443.89
261.4	1443.52
261.39	1443.02
261.37	1442.86
261.35	1442.75
261.34	1442.64
261.32	1442.52
261.31	1442.43
261.29	1442.33
261.27	1442.26
261.25	1442.19
261.24	1442.11
261.22	1442.07
261.2	1442.02
261.19	1441.95
261.17	1441.89
261.15	1441.81
261.14	1441.72
261.12	1441.6
261.1	1441.48
261.09	1441.35
261.07	1441.24
261.05	1441.12
261.04	1441.04
261.02	1440.95
261	1440.89
260.99	1440.86
260.97	1440.8
260.96	1440.77
260.94	1440.7
260.92	1440.62
260.91	1440.5
260.89	1440.37
260.87	1440.2
260.85	1440.08
260.84	1439.98
260.82	1439.9
260.8	1439.82
260.79	1439.82
260.77	1439.85
260.75	1439.82
260.74	1439.77
260.72	1439.75
260.7	1439.72
260.69	1439.66
260.67	1439.64
260.65	1439.59
260.64	1439.54
260.62	1439.45
260.6	1439.35
260.59	1439.25
260.57	1439.15
260.55	1439.03
260.54	1438.89
260.52	1438.76
260.5	1438.65
260.49	1438.56
260.47	1438.47
260.45	1438.39
260.44	1438.28
260.42	1438.16
260.4	1438.02
260.39	1437.91
260.37	1437.8
260.35	1437.69
260.34	1437.61
260.32	1437.53
260.31	1437.47
260.29	1437.43
260.27	1437.4
260.25	1437.36
260.24	1437.34
260.22	1437.26
260.21	1437.2
260.19	1437.14
260.17	1437.08
260.15	1437.02
260.14	1436.95
260.12	1436.86
260.1	1436.78
260.09	1436.68
260.07	1436.42
260.05	1435.65
260.04	1435.1
260.02	1434.91
260	1434.81
259.99	1434.71
259.97	1434.64
259.96	1434.57
259.94	1434.5
259.92	1434.43
259.9	1434.36
259.89	1434.29
259.87	1434.21
259.85	1434.12
259.84	1434.05
259.82	1433.99
259.8	1433.91
259.79	1433.84
259.77	1433.78
259.75	1433.78
259.74	1433.74
259.72	1433.68
259.7	1433.65
259.69	1433.6
259.67	1433.49
259.65	1433.36
259.64	1433.25
259.62	1433.11
259.6	1433
259.59	1432.89
259.57	1432.8
259.55	1432.73
259.54	1432.67
259.52	1432.62
259.5	1432.63
259.49	1432.61
259.47	1432.54
259.45	1432.48
259.44	1432.4
259.42	1432.31
259.4	1432.2
259.39	1432.13
259.37	1432.07
259.35	1431.99
259.34	1431.91
259.32	1431.83
259.31	1431.76
259.29	1431.67
259.27	1431.58
259.25	1431.49
259.24	1431.39
259.22	1431.29
259.2	1431.19
259.19	1431.1
259.17	1431.02
259.16	1430.94
259.14	1430.89
259.12	1430.84
259.1	1430.77
259.09	1430.7
259.07	1430.64
259.05	1430.57
259.04	1430.47
259.02	1430.36
259	1430.24
258.99	1430.13
258.97	1430.02
258.95	1429.93
258.94	1429.84
258.92	1429.75
258.9	1429.67
258.89	1429.59
258.87	1429.44
258.85	1429.35
258.84	1429.27
258.82	1429.14
258.8	1429.03
258.79	1428.93
258.77	1428.83
258.75	1428.73
258.74	1428.65
258.72	1428.57
258.7	1428.5
258.69	1428.44
258.67	1428.39
258.65	1428.36
258.64	1428.3
258.62	1428.24
258.6	1428.17
258.59	1428.08
258.57	1427.98
258.55	1427.88
258.54	1427.76
258.52	1427.63
258.5	1427.54
258.49	1427.46
258.47	1427.38
258.45	1427.31
258.44	1427.32
258.42	1427.27
258.4	1427.27
258.39	1427.26
258.37	1427.18
258.35	1427.1
258.34	1427.03
258.32	1426.97
258.3	1426.91
258.29	1426.85
258.27	1426.79
258.25	1426.74
258.24	1426.67
258.22	1426.61
258.2	1426.57
258.19	1426.5
258.17	1426.43
258.15	1426.37
258.14	1426.31
258.12	1426.23
258.1	1426.14
258.09	1426.02
258.07	1425.9
258.05	1425.77
258.04	1425.66
258.02	1425.56
258	1425.48
257.99	1425.41
257.97	1425.49
257.95	1425.56
257.94	1425.67
257.92	1425.74
257.9	1425.67
257.89	1425.6
257.87	1425.51
257.85	1425.41
257.84	1425.32
257.82	1425.22
257.8	1425.09
257.79	1424.97
257.77	1424.83
257.75	1424.65
257.74	1424.55
257.72	1424.46
257.7	1424.37
257.69	1424.28
257.67	1424.21
257.65	1424.15
257.64	1424.08
257.62	1424.01
257.6	1423.93
257.59	1423.87
257.57	1423.81
257.55	1423.72
257.54	1423.63
257.52	1423.53
257.5	1423.42
257.49	1423.32
257.47	1423.22
257.45	1423.13
257.44	1423.04
257.42	1422.94
257.4	1422.87
257.39	1422.8
257.37	1422.73
257.35	1422.65
257.34	1422.54
257.32	1422.43
257.3	1422.34
257.29	1422.24
257.27	1422.14
257.25	1422.05
257.24	1421.98
257.22	1421.95
257.2	1421.92
257.19	1421.88
257.17	1421.84
257.15	1421.76
257.14	1421.69
257.12	1421.63
257.1	1421.59
257.09	1421.54
257.07	1421.48
257.05	1421.4
257.04	1421.3
257.02	1421.18
257	1421.06
256.99	1420.95
256.97	1420.84
256.95	1420.71
256.94	1420.59
256.92	1420.48
256.9	1420.28
256.89	1420.01
256.87	1419.39
256.85	1419.1
256.84	1418.92
256.82	1418.77
256.8	1418.67
256.79	1418.58
256.77	1418.49
256.75	1418.4
256.74	1418.31
256.72	1418.18
256.7	1418.06
256.68	1417.85
256.67	1417.74
256.65	1417.63
256.64	1417.53
256.62	1417.42
256.6	1417.34
256.59	1417.28
256.57	1417.23
256.55	1417.12
256.54	1417
256.52	1416.89
256.5	1416.77
256.49	1416.66
256.47	1416.56
256.45	1416.48
256.44	1416.39
256.42	1416.33
256.4	1416.25
256.39	1416.2
256.37	1416.15
256.35	1416.13
256.34	1416.12
256.32	1416.09
256.3	1415.98
256.29	1415.87
256.27	1415.79
256.25	1415.68
256.24	1415.58
256.22	1415.48
256.2	1415.39
256.19	1415.32
256.17	1415.27
256.15	1415.22
256.14	1415.21
256.12	1415.24
256.1	1415.18
256.09	1415.16
256.07	1415.07
256.05	1414.98
256.04	1414.84
256.02	1414.71
256	1414.58
255.99	1414.47
255.97	1414.36
255.95	1414.28
255.94	1414.19
255.92	1414.11
255.9	1414.04
255.89	1413.98
255.87	1413.93
255.85	1413.85
255.84	1413.77
255.82	1413.67
255.8	1413.57
255.79	1413.46
255.77	1413.34
255.75	1413.24
255.74	1413.14
255.72	1413.07
255.7	1413.01
255.69	1412.97
255.67	1412.93
255.65	1412.89
255.64	1412.85
255.62	1412.81
255.6	1412.75
255.58	1412.7
255.57	1412.64
255.55	1412.56
255.53	1412.48
255.52	1412.39
255.5	1412.27
255.49	1412.11
255.47	1411.99
255.45	1411.84
255.44	1411.59
255.42	1411.42
255.4	1411.3
255.39	1411.23
255.37	1411.15
255.35	1411.1
255.34	1411.04
255.32	1410.96
255.3	1410.86
255.29	1410.76
255.27	1410.66
255.25	1410.49
255.23	1410.34
255.22	1410.24
255.2	1410.14
255.19	1410.04
255.17	1409.96
255.15	1409.9
255.14	1409.84
255.12	1409.76
255.1	1409.68
255.09	1409.59
255.07	1409.5
255.05	1409.42
255.04	1409.36
255.02	1409.3
255	1409.25
254.99	1409.17
254.97	1409.12
254.95	1409.06
254.94	1408.99
254.92	1408.91
254.9	1408.82
254.89	1408.7
254.87	1408.45
254.85	1408.31
254.84	1408.18
254.82	1408.06
254.8	1407.95
254.79	1407.84
254.77	1407.76
254.75	1407.7
254.74	1407.66
254.72	1407.61
254.7	1407.52
254.69	1407.42
254.67	1407.26
254.65	1407.04
254.64	1406.88
254.62	1406.67
254.6	1406.56
254.59	1406.48
254.57	1406.49
254.55	1406.44
254.54	1406.42
254.52	1406.38
254.5	1406.33
254.49	1406.25
254.47	1406.16
254.45	1406.07
254.44	1405.97
254.42	1405.85
254.4	1405.75
254.39	1405.64
254.37	1405.51
254.35	1405.4
254.34	1405.3
254.32	1405.21
254.3	1405.13
254.29	1405.04
254.27	1404.96
254.25	1404.88
254.24	1404.79
254.22	1404.72
254.2	1404.61
254.19	1404.51
254.17	1404.37
254.15	1404.24
254.13	1404.1
254.12	1404.01
254.1	1403.92
254.09	1403.85
254.07	1403.79
254.05	1403.78
254.04	1403.94
254.02	1404
254	1403.96
253.99	1403.9
253.97	1403.83
253.95	1403.74
253.93	1403.65
253.92	1403.56
253.9	1403.47
253.89	1403.37
253.87	1403.27
253.85	1403.18
253.83	1403.09
253.82	1403.02
253.8	1402.95
253.78	1402.87
253.77	1402.77
253.75	1402.69
253.73	1402.61
253.72	1402.54
253.7	1402.47
253.68	1402.37
253.67	1402.31
253.65	1402.21
253.64	1402.12
253.62	1402.05
253.6	1401.98
253.59	1401.91
253.57	1402.05
253.55	1402.19
253.53	1402.2
253.52	1402.12
253.5	1402.04
253.49	1401.96
253.47	1401.87
253.45	1401.79
253.44	1401.71
253.42	1401.64
253.4	1401.59
253.39	1401.55
253.37	1401.49
253.35	1401.41
253.33	1401.31
253.32	1401.17
253.3	1400.78
253.28	1400.34
253.27	1399.87
253.25	1399.53
253.23	1399.37
253.22	1399.34
253.2	1399.26
253.18	1399.27
253.17	1399.24
253.15	1399.18
253.13	1399.11
253.12	1399.04
253.1	1398.96
253.08	1398.86
253.07	1398.76
253.05	1398.64
253.03	1398.38
253.02	1398.22
253	1398.11
252.98	1398
252.97	1397.92
252.95	1397.83
252.94	1397.75
252.92	1397.65
252.9	1397.56
252.88	1397.48
252.87	1397.4
252.85	1397.39
252.83	1397.43
252.82	1397.32
252.8	1397.22
252.78	1397.13
252.77	1397.04
252.75	1396.93
252.73	1396.81
252.72	1396.68
252.7	1396.58
252.68	1396.49
252.67	1396.41
252.65	1396.35
252.63	1396.28
252.62	1396.23
252.6	1396.17
252.58	1396.1
252.57	1396.01
252.55	1395.91
252.53	1395.85
252.52	1395.78
252.5	1395.72
252.48	1395.65
252.47	1395.58
252.45	1395.51
252.43	1395.46
252.42	1395.37
252.4	1395.26
252.38	1395.1
252.37	1394.81
252.35	1394.51
252.33	1394.04
252.32	1393.53
252.3	1393.39
252.28	1393.3
252.27	1393.27
252.25	1393.23
252.23	1393.15
252.22	1393.09
252.2	1393.03
252.18	1392.97
252.17	1392.9
252.15	1392.81
252.13	1392.71
252.12	1392.61
252.1	1392.53
252.09	1392.45
252.07	1392.38
252.05	1392.31
252.03	1392.24
252.02	1392.16
252	1392.13
251.98	1392.06
251.97	1391.99
251.95	1391.89
251.93	1391.8
251.92	1391.72
251.9	1391.63
251.88	1391.54
251.87	1391.47
251.85	1391.41
251.83	1391.35
251.82	1391.33
251.8	1391.3
251.78	1391.22
251.77	1391.13
251.75	1390.99
251.73	1390.81
251.72	1390.69
251.7	1390.58
251.68	1390.48
251.67	1390.4
251.65	1390.35
251.63	1390.32
251.62	1390.3
251.6	1390.3
251.58	1390.26
251.57	1390.21
251.55	1390.12
251.53	1390.01
251.52	1389.91
251.5	1389.81
251.48	1389.71
251.47	1389.65
251.45	1389.57
251.43	1389.5
251.42	1389.43
251.4	1389.36
251.38	1389.28
251.37	1389.2
251.35	1389.14
251.33	1389.05
251.32	1388.97
251.3	1388.88
251.28	1388.82
251.27	1388.75
251.25	1388.71
251.23	1388.66
251.22	1388.59
251.2	1388.5
251.18	1388.42
251.17	1388.36
251.15	1388.32
251.13	1388.26
251.12	1388.21
251.1	1388.14
251.08	1388.07
251.07	1387.98
251.05	1387.9
251.03	1387.69
251.02	1387.18
251	1386.63
250.98	1386.27
250.97	1386.03
250.95	1385.92
250.93	1385.85
250.92	1385.79
250.9	1385.73
250.88	1385.7
250.87	1385.67
250.85	1385.63
250.83	1385.57
250.82	1385.5
250.8	1385.42
250.78	1385.3
250.77	1385.18
250.75	1385.09
250.73	1384.97
250.72	1384.91
250.7	1384.84
250.68	1384.76
250.67	1384.7
250.65	1384.62
250.63	1384.55
250.62	1384.48
250.6	1384.43
250.58	1384.37
250.57	1384.3
250.55	1384.24
250.53	1384.29
250.51	1384.32
250.5	1384.26
250.48	1384.2
250.47	1384.11
250.45	1384.02
250.43	1383.94
250.42	1383.88
250.4	1383.8
250.38	1383.75
250.36	1383.68
250.35	1383.63
250.33	1383.55
250.32	1383.46
250.3	1383.35
250.28	1383.2
250.27	1383.01
250.25	1382.89
250.23	1382.79
250.22	1382.73
250.2	1382.71
250.18	1382.73
250.16	1382.76
250.15	1382.73
250.13	1382.72
250.12	1382.69
250.1	1382.63
250.08	1382.56
250.06	1382.48
250.05	1382.39
250.03	1382.3
250.01	1382.18